time,wind_speed,wind_angle,battery_voltage,battery_current,position_x,position_y,position_z,orientation_x,orientation_y,orientation_z,orientation_w,velocity_x,velocity_y,velocity_z,angular_x,angular_y,angular_z,linear_acceleration_x,linear_acceleration_y,linear_acceleration_z
0.0,0.100000001,12.0,24.22217369,0.087469511,-79.78139570000002,40.45804724,269.3324017,0.001772306,0.005609551,-0.255525738,0.966784358,-0.012825926,-0.005644709,0.010474564,-0.0008251889999999,0.0014074279999999,0.0068152169999999,0.004257701,-0.120404978,-9.811136699
0.2,0.100000001,3.0,24.22718048,0.095421284,-79.78139587,40.45804729,269.332056,0.001767616,0.005606697,-0.255530089,0.966783345,-0.015409501,-0.001635618,0.010136867,1.24e-06,-0.002861936,0.002033538,0.006174664,-0.116396593,-9.810391763
0.3,0.100000001,352.0,24.22592926,0.095421284,-79.78139589,40.4580473,269.3330812,0.001767616,0.005606697,-0.255530089,0.966783345,-0.016513727,-0.001821677,0.009980725,-7.31e-06,-0.001485685,-0.0008742989999999,0.002696266,-0.128591638,-9.809439837
0.5,0.100000001,354.0,24.22467804,0.095421284,-79.78139603,40.45804731,269.33464810000004,0.001775031,0.00561423,-0.255523652,0.966784894,-0.007775039,-0.005263036,0.01509068,0.001255224,-0.000347319,0.002443233,0.002024007,-0.128270854,-9.810159044
0.6,0.100000001,359.0,24.21090508,0.079517737,-79.78139603999999,40.45804731,269.3361778,0.001775031,0.00561423,-0.255523652,0.966784894,-0.009060158,-0.005173516,0.015142142,-0.002383463,0.000181737,-0.006424722,0.008270765,-0.119889629,-9.812124878
0.81,0.100000001,350.0,24.22342491,0.095421284,-79.78139617,40.45804735,269.335937,0.00177404,0.005614494,-0.255522519,0.966785192,-0.008598091,-0.00358808,0.013628142,-0.004059605,0.001028723,-0.002546404,0.005758231,-0.12422734,-9.811599798
0.9,0.200000003,354.0,24.21841621,0.095421284,-79.78139618,40.45804735,269.3373308,0.00177404,0.005614494,-0.255522519,0.966785192,-0.008570227,-0.003143273,0.014001519,0.000481865,-0.003512588,0.003304436,0.006092723,-0.115744812,-9.811655931
1.1,0.200000003,352.0,24.21340942,0.087469511,-79.7813963,40.45804738,269.3340816,0.001773382,0.00561697,-0.255522013,0.966785312,-0.006398486,-0.001244302,0.006902317,-0.003008329,-0.001127758,-0.001499851,0.008397809,-0.114766298,-9.812431272
1.2,0.200000003,358.0,24.22968483,0.095421284,-79.78139641,40.45804741,269.3324332,0.0017737629999999,0.005617787,-0.255519837,0.966785908,-0.004376835,-0.000661347,0.008408337,0.001629055,0.00266217,0.000726055,0.003208411,-0.128756091,-9.809760264
1.4,0.200000003,5.0,24.21966934,0.103373058,-79.78139642,40.45804741,269.33415410000003,0.0017737629999999,0.005617787,-0.255519837,0.966785908,-0.0055893019999999,-0.0002422,0.008638831,-0.000365404,0.002419015,0.005545465,0.004759678,-0.122761754,-9.80952696
1.5,0.200000003,14.0,24.22718048,0.103373058,-79.78139657,40.45804744,269.3322739,0.001777346,0.005607035,-0.255510509,0.966788411,-0.012703852,-0.004583177,0.008956421,0.000533183,0.00158982,-0.006249706,0.007140838,-0.123051492,-9.811536648
1.7,0.200000003,13.0,24.22467804,0.095421284,-79.7813967,40.45804746,269.3313469,0.001778617,0.005606295,-0.255507886,0.966789067,-0.012492244,-0.004657143,0.009308194,0.001658592,4.04e-05,-0.004678405,0.004121587,-0.126368234,-9.809977196
1.8,0.300000012,26.0,24.22217369,0.095421284,-79.78139671,40.45804746,269.3323102,0.001778617,0.005606295,-0.255507886,0.966789067,-0.012777263,-0.004265114,0.009637658,-0.000583891,-0.003660625,0.001447038,0.00786971,-0.113424353,-9.812600842
2.0,0.300000012,33.0,24.22592926,0.095421284,-79.78139680999999,40.45804748,269.3313374,0.00177743,0.005614169,-0.255511284,0.966788113,-0.006946175,-0.000896658,0.009958745,-0.002174523,-0.002386048,-0.003733424,0.008738421,-0.116456226,-9.813400741
2.1,0.400000006,44.0,24.21966934,0.087469511,-79.78139682,40.45804749,269.3323416,0.00177743,0.005614169,-0.255511284,0.966788113,-0.00706305,-0.000626143,0.010046349,0.000629782,0.000707833,0.00641983,0.003626632,-0.125058969,-9.80986259
2.3,0.400000006,42.0,24.20965195,0.095421284,-79.78139693,40.4580475,269.3313241,0.001780445,0.0056100219999999,-0.255504727,0.966789961,-0.00953432,-0.002830108,0.010241527,-0.000676065,0.00264019,0.0060933019999999,0.004378457,-0.11990273,-9.809539239
2.4,0.5,48.0,24.22467804,0.095421284,-79.78139695,40.4580475,269.3323588,0.001780445,0.0056100219999999,-0.255504727,0.966789961,-0.011036481,-0.00297521,0.010225324,-0.001038093,0.003549908,-0.004954652,0.004435143,-0.12583325,-9.811433737
2.61,0.5,52.0,24.22592926,0.079517737,-79.78139703,40.4580475,269.33115380000004,0.001787041,0.005616772,-0.25550136,0.966790795,-0.005049052,-0.005957269,0.010215778,-0.001671645,0.001974951,-0.005480701,0.002125899,-0.128288368,-9.810479472
2.7,0.600000024,54.0,24.21841621,0.095421284,-79.78139711,40.45804751,269.32919780000003,0.001786687,0.005613609,-0.25549987,0.966791153,-0.00706082,-0.005316043,0.010310964,-0.002927051,0.000623886,-0.000868972,0.0064125369999999,-0.115042826,-9.812171656
2.9,0.600000024,48.0,24.21966934,0.103373058,-79.78139714,40.45804751,269.3313064,0.001786687,0.005613609,-0.25549987,0.966791153,-0.008769461,-0.005236836,0.01070851,-0.005138368,-0.000763239,-0.005899959,0.007978763,-0.117183519,-9.813835773
3.0,0.600000024,49.0,24.22217369,0.095421284,-79.78139721999999,40.45804752,269.3305754,0.001786858,0.005612317,-0.255498201,0.96679163,-0.009629906,-0.005061495,0.014379403,0.001427472,0.000857093,0.003252224,0.00261085,-0.127021514,-9.811073549
3.21,0.600000024,47.0,24.22342491,0.095421284,-79.78139729,40.45804754,269.3303279,0.00178139,0.005615586,-0.255505472,0.966789722,-0.008977393,0.000671871,0.012735301,0.000907698,-0.002066558,0.00498091,0.004401297,-0.119798412,-9.810025728
3.3,0.600000024,40.0,24.22718048,0.087469511,-79.7813973,40.45804754,269.3316059,0.00178139,0.005615586,-0.255505472,0.966789722,-0.010550169,0.000568443,0.012603597,-0.000722393,-1.4800000000000002e-05,-0.00252039,0.0058046919999999,-0.126464896,-9.810443219
3.5,0.600000024,33.0,24.21591187,0.095421284,-79.78139736,40.45804753,269.3332986,0.001789754,0.005621088,-0.255500197,0.966791093,-0.005004368,-0.00367605,0.016001579,0.000568761,0.001694978,0.001330059,0.003110704,-0.128286641,-9.810018711
3.6,0.600000024,23.0,24.22592926,0.071565963,-79.78139736,40.45804753,269.3349204,0.001789754,0.005621088,-0.255500197,0.966791093,-0.005484652,-0.003367861,0.016240867,-0.001485117,0.002606845,-0.000523576,0.008881153,-0.113747119,-9.812476881
3.8,0.699999988,22.0,24.22217369,0.087469511,-79.78139741999999,40.45804753,269.336821,0.001789425,0.005622802,-0.25549981,0.966791153,-0.005560405,-0.002086764,0.017725856,-0.00476434,-6.53e-05,-0.005036443,0.00850892,-0.119558384,-9.813559785
3.9,0.699999988,15.0,24.22592926,0.095421284,-79.78139743,40.45804753,269.338603,0.001789425,0.005622802,-0.25549981,0.966791153,-0.005509476,-0.001846443,0.017878998,0.003078042,-0.001319514,0.007838964,0.004300269,-0.12195968,-9.810347325
4.11,0.699999988,14.0,24.21340942,0.103373058,-79.7813975,40.45804753,269.3409633,0.001791517,0.005619904,-0.255495757,0.966792226,-0.008567964,-0.003036393,0.019072508,0.000925093,0.002314783,0.004532727,0.006084477,-0.115321628,-9.811562376
4.2,0.699999988,4.0,24.22843361,0.095421284,-79.78139755,40.45804753,269.341701,0.001788356,0.0056177569999999,-0.255497277,0.966791809,-0.011847187,-0.0005321319999999,0.01932164,0.001348824,0.002187968,0.002348164,0.003344673,-0.129079953,-9.810459591
4.4,0.699999988,3.0,24.21591187,0.127228379,-79.78139757,40.45804755,269.3456268,0.001788356,0.0056177569999999,-0.255497277,0.966791809,-0.012829178,-0.000164252,0.019536083,0.002725745,0.003560868,0.002356089,0.00260553,-0.127247573,-9.809344527
4.5,0.699999988,357.0,24.22217369,0.095421284,-79.78139759999999,40.45804752,269.3467068,0.0017965289999999,0.005626725,-0.255489618,0.966793776,-0.006183738,-0.004249996,0.019805671,-0.001556018,0.00201417,-0.00594882,0.004853736,-0.119296319,-9.810817441
4.7,0.699999988,353.0,24.22718048,0.095421284,-79.78139763,40.45804751,269.3501081,0.001796922,0.005628604,-0.25549075,0.966793478,-0.00577345,-0.003111717,0.020034689,-0.001070014,0.002330239,-0.003611519,0.004880989,-0.127501717,-9.812109675
4.8,0.699999988,349.0,24.22592926,0.095421284,-79.78139764,40.45804751,269.35214039999994,0.001796922,0.005628604,-0.25549075,0.966793478,-0.005969888,-0.002789093,0.020489681,6.55e-05,0.001544645,0.002478319,0.006739709,-0.114491543,-9.812476881
5.0,0.699999988,346.0,24.21591187,0.087469511,-79.78139766999999,40.4580475,269.35624260000003,0.001797277,0.0056321969999999,-0.255490452,0.966793537,-0.005338818,-0.001831001,0.020412335,-0.003087811,0.000114932,-0.00419973,0.007968229,-0.117359758,-9.812004426
5.1,0.699999988,343.0,24.22342491,0.087469511,-79.78139766999999,40.4580475,269.3582925,0.001797277,0.0056321969999999,-0.255490452,0.966793537,-0.005506964,-0.001628973,0.020539548,0.003188173,0.00233616,0.006682334,0.00318249,-0.126793235,-9.809522867
5.3,0.699999988,341.0,24.2121563,0.095421284,-79.78139771,40.45804748,269.3633289,0.001799646,0.005630963,-0.255487651,0.966794252,-0.008057714,-0.00291852,0.020658507,-0.002005265,0.00077357,0.003011907,0.003811579,-0.122909085,-9.810142672
5.4,0.699999988,339.0,24.22467804,0.095421284,-79.78139772,40.45804749,269.3654079,0.001799646,0.005630963,-0.255487651,0.966794252,-0.009582269,-0.00320187,0.020667229,-6.74e-06,-0.0005606,-0.00278499,0.00472332,-0.124143624,-9.811713234
5.61,0.800000012,342.0,24.21340942,0.055662416,-79.78139775,40.45804747,269.37149710000006,0.001801462,0.005632699,-0.25548473,0.966795027,-0.011036449,-0.003966789,0.020574276,0.000636099,0.001672235,-0.00713125,0.004501975,-0.128087553,-9.811142546
5.7,0.800000012,344.0,24.22718048,0.087469511,-79.78139775999999,40.45804748,269.3765702,0.001799465,0.005633251,-0.255488247,0.966794133,-0.012084409,-0.001530939,0.020772315,0.002905461,0.000720185,0.004106378,0.0065821469999999,-0.115520644,-9.811969342
5.9,0.8999999759999999,345.0,24.21966934,0.103373058,-79.78139779,40.45804748,269.3807668,0.001799465,0.005633251,-0.255488247,0.966794133,-0.013772136,-0.001418755,0.021091174,0.000614547,-0.000177683,0.000363351,0.007719003,-0.116409503,-9.813130599
6.0,0.8999999759999999,347.0,24.22467804,0.087469511,-79.78139779,40.45804747,269.3873572,0.001802584,0.005636989,-0.255484492,0.966795087,-0.012112388,-0.003068879,0.020846287,-0.000178247,0.001590232,0.005178171,0.001543418,-0.127600306,-9.809919308
6.2,1.0,352.0,24.22718048,0.103373058,-79.78139777999999,40.45804747,269.3976893,0.001803125,0.00564524,-0.255485743,0.966794729,-0.007900465,-0.0015084579999999,0.021185696,0.000426811,0.002405973,0.00602666,0.002910629,-0.12563894,-9.808893707
6.3,1.100000024,357.0,24.21340942,0.174939021,-79.78139779,40.45804747,269.3998227,0.001803125,0.00564524,-0.255485743,0.966794729,-0.00917635,-0.001695798,0.021288232,-0.001247366,0.00161749,-0.003297748,0.005799738,-0.120362869,-9.81203717
6.5,1.200000048,0.0,24.21841621,0.166987255,-79.78139779,40.45804745,269.4117312,0.00181146,0.005648197,-0.255480498,0.9667961,-0.00772626,-0.00749857,0.02125694,-0.00240528,-0.00187119,-0.004027273,0.006365051,-0.122813931,-9.812081609
6.6,1.200000048,5.0,24.21591187,0.13518016,-79.7813978,40.45804744,269.4138665,0.00181146,0.005648197,-0.255480498,0.9667961,-0.007583261,-0.0071818219999999,0.021367299,0.002217288,0.000780805,0.004193144,0.004612447,-0.121317089,-9.809031116
6.8,1.299999952,8.0,24.19963646,0.151083708,-79.78139777,40.45804744,269.42691510000003,0.001809821,0.00565371,-0.255485058,0.966794848,-0.006210184,-0.004827514,0.021473928,0.003016952,-0.000123628,0.002477221,0.005154188,-0.12020377,-9.809963747
6.9,1.200000048,8.0,24.2121563,0.166987255,-79.78139777999999,40.45804744,269.42906989999994,0.001809821,0.00565371,-0.255485058,0.966794848,-0.007676581,-0.005094024,0.021443062,0.001644917,-0.00108169,-0.0055025,0.004521821,-0.125410223,-9.810998704
7.1,1.200000048,9.0,24.22092056,0.151083708,-79.78139779,40.45804743,269.4437837,0.001810851,0.005650538,-0.255483925,0.966795146,-0.012947646,-0.006780819,0.021487683,-0.001159001,-0.000999457,-0.007149255,0.00545413,-0.124199027,-9.811265337
7.2,1.100000024,6.0,24.21841621,0.206746116,-79.78139775,40.45804743,269.4580287,0.001810568,0.005655601,-0.255485803,0.96679461,-0.011148708,-0.005562604,0.021983377,0.002459871,0.000628651,0.00209627,0.004942725,-0.125830656,-9.811004552
7.4,1.100000024,11.0,24.20965195,0.159035474,-79.78139777999999,40.45804743,269.4624481,0.001810568,0.005655601,-0.255485803,0.96679461,-0.012502415,-0.00546013,0.022089429,-0.0008731619999999,-0.000443725,0.002288804,0.005916613,-0.117665439,-9.809625193
7.5,1.100000024,11.0,24.21466064,0.159035474,-79.78139775,40.45804742,269.47826289999995,0.001810657,0.005660649,-0.255487353,0.966794133,-0.01168089,-0.005277932,0.021776122,-0.002046283,-0.00081516,-0.002013168,0.003077233,-0.127335601,-9.80964215
7.71,1.0,13.0,24.20714760000001,0.174939021,-79.78139773,40.45804742,269.4972777,0.001811114,0.005664051,-0.255489469,0.966793656,-0.011676848,-0.00489515,0.022069889,-0.002838031,0.002634514,-0.004124802,0.004487666,-0.127185985,-9.810302886
7.8,0.8999999759999999,13.0,24.22092056,0.151083708,-79.78139773999999,40.45804742,269.49951880000003,0.001811114,0.005664051,-0.255489469,0.966793656,-0.011819482,-0.00461638,0.022364625,0.001108104,-0.002721313,0.000400832,0.007327172,-0.114317689,-9.811286387
8.0,0.8999999759999999,19.0,24.21466064,0.143131927,-79.78139772,40.4580474,269.5199518,0.001817251,0.005669347,-0.25548929,0.966793597,-0.009149103,-0.008402241,0.022248809,-0.000165763,0.001971832,-0.002288738,0.008996351,-0.11370649,-9.811820823
8.11,0.800000012,24.0,24.21591187,0.13518016,-79.78139773999999,40.4580474,269.52218480000005,0.001817251,0.005669347,-0.25548929,0.966793597,-0.009655772,-0.008422231,0.022162887,-2.77e-05,-0.001434548,0.003716703,0.002871229,-0.127874458,-9.809231091
8.3,0.800000012,27.0,24.20714760000001,0.174939021,-79.78139771,40.4580474,269.543847,0.001815434,0.0056731119999999,-0.255492628,0.966792703,-0.010084615,-0.006457563,0.022364626,0.002685382,0.000854112,0.004743184,0.004930411,-0.125703588,-9.809589525
8.41,0.699999988,32.0,24.21090508,0.151083708,-79.78139773,40.4580474,269.5461058,0.001815434,0.0056731119999999,-0.255492628,0.966792703,-0.01112332,-0.006572264,0.022525161,-0.004080728,-0.003352053,-0.006620366,0.009120635,-0.116941801,-9.813030027
8.6,0.699999988,34.0,24.21466064,0.13518016,-79.78139766999999,40.45804739,269.5690064,0.00181302,0.005683565,-0.255498052,0.966791213,-0.007152842,-0.002963704,0.022744876,0.000180285,0.000639791,-0.007139247,0.008416976,-0.12145618,-9.81342296
8.7,0.699999988,36.0,24.20464516,0.174939021,-79.78139763,40.45804738,269.5899734,0.001817611,0.00568682,-0.255493581,0.966792345,-0.00583391,-0.006332042,0.022814058,0.001942237,-0.001107649,0.003371843,0.003368434,-0.122720028,-9.810536774
8.9,0.699999988,37.0,24.20840073,0.159035474,-79.78139764999999,40.45804737,269.5945572,0.001817611,0.00568682,-0.255493581,0.966792345,-0.0070328319999999,-0.006078621,0.022999688,0.001184792,-9.69e-05,0.004311498,0.0063056419999999,-0.11760144,-9.810704005
9.02,0.800000012,41.0,24.21466064,0.159035474,-79.78139761,40.45804737,269.61657710000003,0.001816866,0.00568868,-0.25549686,0.966791511,-0.008888668,-0.005667705,0.022468747,-0.002240944,-0.000220423,-0.001880942,0.004912004,-0.126168277,-9.810616297
9.2,0.800000012,42.0,24.21966934,0.087469511,-79.78139756,40.45804736,269.6417064,0.001815039,0.005697732,-0.255501121,0.966790318,-0.005234123,-0.002713422,0.022540856,0.004963148,-0.000650856,0.000833532,0.002927581,-0.129731233,-9.809581339
9.3,0.8999999759999999,42.0,24.2121563,0.095421284,-79.78139756,40.45804736,269.6439819,0.001815039,0.005697732,-0.255501121,0.966790318,-0.005800168,-0.002506982,0.022808338,-0.002557114,-0.001873068,-0.002871317,0.008860169,-0.116350309,-9.813267424
9.5,1.0,43.0,24.2121563,0.087469511,-79.78139752,40.45804736,269.6700983,0.001815762,0.005698938,-0.255502641,0.966789901,-0.007984975,-0.003299368,0.023185137,-0.001802865,0.0004055,-0.003674948,0.006709891,-0.121311251,-9.81233187
9.6,1.100000024,44.0,24.22092056,0.071565963,-79.78139752999999,40.45804736,269.6724328,0.001815762,0.005698938,-0.255502641,0.966789901,-0.007800127,-0.002788183,0.023379759,0.001382714,-0.000190612,0.006278045,0.004838142,-0.120790886,-9.809444515
9.8,1.100000024,40.0,24.22342491,0.095421284,-79.78139750999999,40.45804735,269.69843239999994,0.001817535,0.0056974719999999,-0.255501181,0.966790318,-0.011652326,-0.004901629,0.023452825,0.000849357,-0.0001628229999999,0.002100122,0.005456598,-0.116096805,-9.810951927
9.91,1.200000048,33.0,24.21466064,0.103373058,-79.78139752999999,40.45804735,269.7007789,0.001817535,0.0056974719999999,-0.255501181,0.966790318,-0.012738919,-0.005082557,0.023243205,-0.000897511,0.001442687,-0.000217974,0.001877913,-0.129051156,-9.809085495
10.11,1.200000048,32.0,24.22092056,0.103373058,-79.78139750999999,40.45804735,269.7265472,0.001818953,0.005697238,-0.255500764,0.966790378,-0.015427286,-0.0066962609999999,0.023092485,0.002208997,0.003629441,0.003461883,0.000486147,-0.128434549,-9.809073801
10.21,1.299999952,33.0,24.22592926,0.095421284,-79.78139743,40.45804735,269.74933050000004,0.001816057,0.005714786,-0.255507648,0.966788471,-0.005230635,-0.0010802989999999,0.023201731,-0.001672178,-0.001204959,-0.002536072,0.008014571,-0.118095612,-9.813214799
10.4,1.299999952,32.0,24.22342491,0.119276606,-79.78139743999999,40.45804735,269.75398010000004,0.001816057,0.005714786,-0.255507648,0.966788471,-0.006396375,-0.0009938739999999,0.023174133,-0.0054471469999999,0.002587855,-0.004120032,0.006655736,-0.121194261,-9.811936598
10.5,1.200000048,33.0,24.21841621,0.103373058,-79.78139740000002,40.45804735,269.7765278,0.001817333,0.005715989,-0.255507857,0.966788411,-0.007160722,-0.002172908,0.023474624,-9.19e-05,8.51e-05,0.004456257,0.004228265,-0.121179013,-9.809550349
10.7,1.200000048,26.0,24.21466064,0.095421284,-79.78139737,40.45804736,269.800158,0.001817799,0.005718268,-0.255509108,0.966788054,-0.008344362,-0.002554404,0.023486691,-0.000613125,0.0001659209999999,0.001756251,0.006647858,-0.116610766,-9.810785866
10.8,1.200000048,27.0,24.22217369,0.095421284,-79.78139738,40.45804736,269.8025155,0.001817799,0.005718268,-0.255509108,0.966788054,-0.009474172,-0.002616942,0.02340336,0.001694345,0.001761253,-0.003693279,0.0049975509999999,-0.127938732,-9.810216347
11.0,1.200000048,29.0,24.21591187,0.095421284,-79.78139736,40.45804736,269.8259,0.001819007,0.0057206459999999,-0.255509645,0.966787875,-0.009888738,-0.003455993,0.022749123,7.240000000000001e-05,0.000495401,-0.001158391,0.003079826,-0.128248699,-9.808782025
11.1,1.100000024,30.0,24.22217369,0.079517737,-79.78139737,40.45804736,269.8281979,0.001819007,0.0057206459999999,-0.255509645,0.966787875,-0.01039625,-0.003071094,0.022951301,-0.001904019,-0.000896067,0.002605164,0.010477096,-0.115626086,-9.812133064
11.31,1.100000024,30.0,24.22092056,0.087469511,-79.78139736,40.45804738,269.8501248,0.001816088,0.005717617,-0.255511403,0.966787517,-0.016200247,-0.002335532,0.018750679,0.000805795,0.001714958,-0.004237688,0.006929409,-0.116892136,-9.812956352
11.41,1.0,34.0,24.21716499,0.103373058,-79.78139738,40.45804739,269.8520202,0.001816088,0.005717617,-0.255511403,0.966787517,-0.016236855,-0.00190845,0.018786728,0.004841882,0.001745746,0.0073856,0.004793049,-0.12569511,-9.808986678
11.6,1.0,33.0,24.21466064,0.071565963,-79.78139732,40.45804739,269.87610960000006,0.001816944,0.005728083,-0.255516618,0.966786087,-0.01033237,-0.00048011,0.020898619,-0.000250066,0.000486209,0.0052836119999999,0.005633938,-0.119388842,-9.809634549
11.7,1.0,33.0,24.22217369,0.087469511,-79.78139728,40.45804739,269.8970708,0.001818717,0.0057308069999999,-0.255517989,0.96678561,-0.010770871,-0.002061367,0.021339158,-0.003281821,-0.001335759,-0.00530185,0.007567793,-0.126393194,-9.810471286
11.91,1.100000024,30.0,24.21841621,0.13518016,-79.78139730999999,40.45804739,269.901381,0.001818717,0.0057308069999999,-0.255517989,0.96678561,-0.011720992,-0.002056999,0.02136827,-0.001022798,-0.000855775,-0.002080896,0.002787887,-0.127808686,-9.809609991
12.0,1.0,26.0,24.21591187,0.103373058,-79.78139725999999,40.45804739,269.9212322,0.001820324,0.005734264,-0.255517483,0.966785729,-0.010601731,-0.002735479,0.017813571,-0.00092985,-0.001341201,0.001970147,0.007594666,-0.114603718,-9.811798604
12.2,1.100000024,28.0,24.22092056,0.087469511,-79.78139723999999,40.45804739,269.9447002,0.001822942,0.0057332009999999,-0.255516618,0.966785967,-0.014149761,-0.005558928,0.019741536,0.000626274,-0.002842768,-0.001375207,0.008585163,-0.113843434,-9.811864092
12.4,1.0,29.0,24.22467804,0.095421284,-79.78139725999999,40.45804739,269.9466819,0.001822942,0.0057332009999999,-0.255516618,0.966785967,-0.014582866,-0.0055099969999999,0.019573736,0.000777643,0.00317382,0.002148689,0.00758569,-0.117149368,-9.811906192
12.5,1.0,29.0,24.22592926,0.095421284,-79.7813972,40.45804739,269.970797,0.001821871,0.005744824,-0.255519867,0.966785073,-0.008967228,-0.002900714,0.021167064,0.001516186,0.001670676,0.003706927,0.003567225,-0.12604788,-9.808860378
12.6,1.0,23.0,24.21591187,0.087469511,-79.78139721,40.45804739,269.9729275,0.001821871,0.005744824,-0.255519867,0.966785073,-0.010000255,-0.002890195,0.021238579,-0.003537014,0.00128916,-0.003637362,0.008130665,-0.119601553,-9.812159961
12.8,1.0,21.0,24.21966934,0.087469511,-79.78139716,40.45804737,269.9964456,0.001825873,0.005752905,-0.255520135,0.966784894,-0.005820778,-0.004576444,0.02171462,0.000910064,0.000117129,-0.00463401,0.006324404,-0.121926333,-9.811003382
12.9,1.0,21.0,24.21841621,0.095421284,-79.78139716999999,40.45804737,269.9986271,0.001825873,0.005752905,-0.255520135,0.966784894,-0.005574503,-0.004037985,0.021804513,0.000446194,-0.002139825,0.004755021,0.006568261,-0.123200697,-9.808222446
13.1,1.0,21.0,24.22467804,0.087469511,-79.78139713,40.45804737,270.0225586,0.001825864,0.005753896,-0.25552249,0.966784298,-0.0074104459999999,-0.00418623,0.022109572,0.001849571,0.001047951,0.004121876,0.0055132459999999,-0.119062038,-9.809239277
13.2,1.0,23.0,24.21466064,0.095421284,-79.78139707,40.45804736,270.0445384,0.001825761,0.0057556,-0.255524278,0.966783822,-0.008876956,-0.004525925,0.021821536,-0.002842936,0.001481004,-0.004140455,0.005533323,-0.126427693,-9.809853235
13.4,1.0,24.0,24.21466064,0.111324832,-79.78139709999999,40.45804736,270.0489478,0.001825761,0.0057556,-0.255524278,0.966783822,-0.009659153,-0.004497287,0.021846057,-0.001805621,0.00215192,-0.002458067,0.002025781,-0.127210973,-9.809300088
13.51,1.0,30.0,24.21591187,0.095421284,-79.78139702,40.45804737,270.0714068,0.001820058,0.005762279,-0.255530983,0.966782033,-0.007555956,0.001082052,0.022465094,-0.000557893,-0.00170884,0.002742305,0.005537208,-0.117036653,-9.809397152
13.7,1.0,32.0,24.20840073,0.095421284,-79.78139698999999,40.45804737,270.095829,0.001823308,0.005760687,-0.25553003,0.966782272,-0.01135578,-0.002149041,0.022394645,-0.0007635189999999,-0.002940421,0.002995808,0.006006815,-0.1160226,-9.810438541
13.8,1.0,37.0,24.22342491,0.095421284,-79.781397,40.45804737,270.0980811,0.001823308,0.005760687,-0.25553003,0.966782272,-0.012296512,-0.002164075,0.022312205,0.000924896,-0.004313634,0.000305646,0.003666535,-0.129844175,-9.808815354
14.0,1.0,40.0,24.21090508,0.111324832,-79.78139694,40.45804738,270.12278460000005,0.001819324,0.005768484,-0.25553295,0.966781437,-0.010235772,0.001988645,0.022365226,-6.879999999999999e-05,0.002432088,-7.509999999999998e-05,0.001783519,-0.129171453,-9.807949381
14.1,1.0,45.0,24.22342491,0.087469511,-79.78139694,40.45804738,270.1250491,0.001819324,0.005768484,-0.25553295,0.966781437,-0.010398151,0.002277585,0.022678201,-0.001002815,0.000505355,-0.000558738,0.006720373,-0.115821182,-9.811832517
14.3,1.0,50.0,24.21841621,0.111324832,-79.78139687,40.45804736,270.15012210000003,0.001828307,0.0057788999999999,-0.255534142,0.96678108,-0.003065036,-0.002750043,0.022630437,0.000868446,-0.002401817,-0.001082969,0.006419146,-0.115503523,-9.812073423
14.41,1.200000048,52.0,24.22217369,0.103373058,-79.78139687,40.45804735,270.1523842,0.001828307,0.0057788999999999,-0.255534142,0.96678108,-0.003536353,-0.002647333,0.022584931,0.002325833,0.001590843,0.002024413,0.003457703,-0.128975389,-9.809801195
14.6,1.200000048,53.0,24.21966934,0.079517737,-79.78139679,40.45804735,270.1778225,0.001827109,0.005783848,-0.255537748,0.966780066,-0.002323564,-0.000961421,0.022391114,0.003902541,-0.0014315,0.001676894,0.001407335,-0.128678834,-9.808540535
14.7,1.399999976,54.0,24.20464516,0.103373058,-79.78139671,40.45804734,270.200736,0.001826886,0.005788075,-0.255540282,0.966779411,-0.001955752,-0.000495374,0.022454044,-0.003417338,-0.002528633,-0.00279338,0.007620079,-0.116202009,-9.812209078
14.9,1.399999976,60.0,24.22342491,0.103373058,-79.78139671,40.45804734,270.2052464,0.001826886,0.005788075,-0.255540282,0.966779411,-0.002657519,-0.000460667,0.022636965,-0.004283067,0.000451149,-0.001374867,0.006283871,-0.116826601,-9.812810172
15.0,1.5,59.0,24.21966934,0.111324832,-79.78139664,40.45804733,270.2272815,0.001827863,0.005788273,-0.255539596,0.96677959,-0.004928885,-0.001910608,0.018138012,0.001805198,-0.000547547,0.004652471,0.003674882,-0.1274549019999999,-9.808510129
15.2,1.600000024,54.0,24.22592926,0.111324832,-79.78139655999999,40.45804732,270.2513761,0.001827642,0.005795054,-0.25554195,0.966778934,-0.002523864,-0.000604258,0.015145527,-0.00120803,-0.000720645,0.005013613,0.003314978,-0.12471,-9.808528256
15.3,1.7000000480000002,51.0,24.22843361,0.111324832,-79.78139655999999,40.45804732,270.2528896,0.001827642,0.005795054,-0.25554195,0.966778934,-0.003697713,-0.000523991,0.015063663,0.000696907,0.00075968,-0.0078655369999999,0.003831651,-0.12318342,-9.808317171
15.5,1.600000024,51.0,24.16207504,0.914453983,-79.78139651,40.45804731,270.277584,0.001830511,0.005790254,-0.255543798,0.966778517,-0.010052106,-0.004111423,0.013790349,0.000504934,-0.003854805,-0.013518861,0.006086433,-0.123127844,-9.81073558
15.6,1.7000000480000002,48.0,24.18836784,0.405540466,-79.78139652,40.45804731,270.27899360000004,0.001836886,0.005769479,-0.255553156,0.966776073,-0.009035127,-0.003694096,0.01419693,-0.002667474,-0.000907061,0.015565244,0.009522512,-0.105633231,-9.812875661
15.8,1.7000000480000002,45.0,24.19838333,0.381685138,-79.78139643,40.45804728,270.3034219,0.001841803,0.005796674,-0.255560338,0.966774046,-0.005579564,-0.004642161,0.013625331,-0.0006570219999999,0.001796233,-0.00502839,0.008307748,-0.130716224,-9.810909827
15.91,1.600000024,42.0,24.19963646,0.389636934,-79.78139644,40.45804728,270.3047761,0.00184506,0.005801572,-0.255531549,0.966781557,-0.0061235469999999,-0.0051405309999999,0.013306009,-0.002425164,-0.001432092,0.002876277,0.004825209,-0.128091308,-9.806318008
16.1,1.600000024,41.0,24.19713211,0.405540466,-79.78139636,40.45804726,270.32980960000003,0.001844529,0.005799896,-0.255581647,0.966768384,-0.007257067,-0.004765729,0.012823492,0.00250216,0.002170445,0.00503656,0.002304117,-0.134012884,-9.803794935
16.21,1.5,37.0,24.19212341,0.453251123,-79.78139625,40.45804724,270.3537516,0.001848402,0.005800797,-0.255528629,0.966782331,-0.004297215,-0.002576415,0.012793018,-0.004436108,0.004472188,-0.008478113,0.004889645,-0.114858081,-9.812496761
16.4,1.5,37.0,24.19087219,0.52481705,-79.78139626,40.45804724,270.356286,0.001835271,0.0058068769999999,-0.255577654,0.966769397,-0.005144537,-0.002464873,0.012623725,-0.005319149,0.006178471,-0.005117332,0.003217199,-0.121033326,-9.810843168
16.5,1.5,35.0,24.17835045,0.556624174,-79.78139616,40.4580472,270.38043260000006,0.001850219,0.005810938,-0.255559236,0.966774225,-0.003740497,-0.008233135,0.012152733,-0.000935169,-0.003211251,-0.002123476,-8.36e-05,-0.113970264,-9.809072632
16.71,1.5,34.0,24.091959,1.137103677,-79.78139605,40.45804717,270.4058747,0.001815367,0.0061614209999999,-0.253288865,0.967369437,-0.005178927,-0.009020505,0.01262515,-0.006005988,0.024681743,0.03444431,-0.007451671,-0.150721778,-9.820354249
16.8,1.399999976,37.0,24.17835045,0.389636934,-79.78139605999999,40.45804716,270.40709110000006,0.001720235,0.006205021,-0.253332704,0.967357814,-0.002431751,-0.003165462,0.012458183,0.00709549,0.007995184,-0.000478589,0.033248399,-0.114811678,-9.824340881
17.01,1.399999976,36.0,23.51726913,6.1546731,-79.78139596,40.45804713,270.4323534,0.001805151,0.006145845,-0.2533198,0.967361391,-0.005957435,-0.005852905,0.014278724,0.023891827,-0.001515104,0.011397173,0.042172869,-0.108319003,-9.837840933
17.11,1.399999976,42.0,24.10948753,1.02577889,-79.78139596999999,40.45804713,270.433609,0.001692171,0.00640034,-0.2532686,0.967373431,-0.017548694,-0.00829261,0.011363943,-0.058678452,0.020939421,0.017793788,0.005410735,-0.188140723,-9.812851102
17.3,1.399999976,42.0,24.18961906,0.278312087,-79.78139585,40.4580471,270.45903730000003,0.001717218,0.006164846,-0.253344059,0.967355072,-0.010195816,-0.003564151,0.011466427,1.35e-05,-0.005368546,-0.005043046,0.034054851,-0.114785685,-9.80822537
17.41,1.299999952,41.0,24.19212341,0.389636934,-79.78139587,40.4580471,270.4601502,0.001702845,0.0060544519999999,-0.25320825,0.967391372,-0.00925865,-0.008218933,0.011487689,0.000341021,0.005684101,-0.012928779,0.008334856,-0.094107291,-9.81260318
17.6,1.299999952,46.0,23.89538765,4.771064281,-79.78139574,40.45804707,270.4857559,0.001744894,0.006094408,-0.253284037,0.967371225,-0.010305162,-0.005406558,0.011730668,0.002576985,-0.003215321,0.000168076,0.020474339,-0.134959968,-9.818612949
17.7,1.299999952,45.0,23.83654213,5.423110007999999,-79.78139559999998,40.45804704,270.50989910000004,0.001741691,0.006157433,-0.250657409,0.968054712,-0.009762269,-0.00453232,0.014573273,-0.013201788,-0.025490666,0.010792084,-0.019132045,-0.169373975,-9.82656984
17.9,1.200000048,44.0,23.68128777,7.880208015,-79.78139562999999,40.45804704,270.5128149,0.001740879,0.006485385,-0.250709713,0.968039095,-0.00898366,-0.003234823,0.016564604,0.001767337,-0.021849997,-0.00873264,0.027424332,-0.103152887,-9.828935623
18.01,1.200000048,41.0,23.58988762,8.993455887,-79.78139546,40.45804699,270.5359125,0.001844499,0.007052856,-0.248258829,0.968666375,0.000387763,-0.004893306,0.016352732,-0.005356844,0.025064308,-0.011356683,-0.015583047,-0.131701132,-9.823312941
18.2,1.100000024,44.0,23.3532505,11.91970921,-79.78139531,40.45804695,270.5606322,0.002178177,0.008770919,-0.246540859,0.969090343,-0.006795893,-0.003949762,0.015078785,-0.042467948,-0.027936369,-0.039489113,-0.065159617,-0.234710014,-9.802907912
18.3,1.200000048,44.0,23.25058174,13.4066906,-79.78139531,40.45804694,270.56246560000005,0.002625955,0.009955249,-0.246483579,0.969092309,-0.001261706,-0.012570041,0.020001591,0.002093347,-0.04199608,-0.013033295,0.021819232,-0.253994076,-9.890485754
18.5,1.100000024,42.0,22.98264313,16.84185791,-79.78139515,40.45804689,270.58655350000004,0.004643619,0.01210544,-0.244761243,0.969496727,-0.001821578,-0.02333407,0.018639968,-0.004166292,-0.020670779,-0.008038471,-0.085659233,-0.389015769,-9.869528164
18.6,1.200000048,37.0,22.88372993,18.28907967,-79.78139515,40.45804688,270.58837789999995,0.0059056469999999,0.01299733,-0.244596899,0.969519854,-0.0008360619999999,-0.009730995,0.016465055,0.022273444,-0.033692718,0.037327982,0.099279345,-0.317104664,-9.80493865
18.8,1.299999952,34.0,22.614540100000006,21.46183777,-79.78139496,40.45804683,270.61393300000003,0.004077259,0.008943402,-0.242484942,0.97010541,-0.001586305,0.002195069,0.027810236,-0.0643440109999999,0.049188562,0.004577427,0.15151709,-0.218385812,-9.899000469
18.9,1.299999952,38.0,22.48182297,23.39411926,-79.78139496,40.45804685,270.6181163,0.002627666,0.002784855,-0.240148932,0.970728517,-0.02324755,0.021314428,0.05851472,-0.190226793,-0.098072276,-0.103964455,0.09751217,-0.275830247,-9.971525824
19.1,1.299999952,38.0,22.74099731,19.9907589,-79.78139485,40.45804685,270.6597414,-0.0077203169999999,-0.016209479,-0.234393939,0.971975923,-0.070469993,0.050032799,0.252177829,-0.248761848,-0.122588359,0.052875534,0.212019985,-0.142695889,-11.01813533
19.2,1.399999976,41.0,22.72221565,19.02064323,-79.78139472,40.45804683,270.7020664,-0.0068613569999999,-0.015418688,-0.233906105,0.972112715,-0.062451393,0.037436156,0.343130093,0.251915306,0.146884665,0.058726355,0.0536146,0.122578635,-10.96194475
19.4,1.5,43.0,22.59450722,21.20738029,-79.78139488,40.45804702,270.7761402,0.003905664,0.001309393,-0.233848929,0.97226429,-0.118194254,0.0663172009999999,0.372987926,0.1363099069999999,0.175344035,-0.043145735,0.06981147,-0.05337957,-9.970761008
19.5,1.5,40.0,22.61328697,20.73822594,-79.78139481999999,40.45804711,270.81645530000003,0.008200093,0.00294081,-0.233459502,0.97232753,-0.131732347,0.075828886,0.323089391,0.091101266,0.150383532,0.04761124,0.012886834,-0.014627557,-9.747785625
19.7,1.600000024,41.0,22.50310707,22.34448433,-79.78139503,40.45804737,270.8769001,0.01319203,0.003025521,-0.233509883,0.972260296,-0.142906234,0.08905843,0.281010063,0.062788554,0.098386742,0.073297963,0.083316939,-0.050278376,-9.611437912
19.8,1.600000024,32.0,22.49809837,22.5989418,-79.78139488,40.45804737,270.8916006,0.016208695,0.005358136,-0.234548137,0.971954584,-0.120333057,0.087064944,0.239533136,0.075469725,-0.035538126,0.008932138,0.35653317,-0.0607974159999999,-9.858565804
20.0,1.600000024,33.0,22.44426155,22.47966576,-79.78139499,40.45804758,270.961471,0.014317933,0.0064969719999999,-0.231757089,0.972646654,-0.138474223,0.082728341,0.288733333,-0.110013373,-0.110857837,-0.090267606,0.353218128,-0.319219273,-10.04018968
20.1,1.600000024,30.0,22.44050407,22.7500248,-79.78139508999999,40.45804768,270.99265089999994,0.011447501,0.001814578,-0.230862364,0.972917438,-0.129682983,0.07113038,0.321435864,-0.093720987,-0.106317647,-0.01748983,0.309356446,-0.14326465,-10.09594288
20.3,1.600000024,28.0,22.44801712,22.2729187,-79.78139519,40.45804787,271.0754847,0.010569958,0.000722034,-0.227852315,0.973638117,-0.134422991,0.059141124,0.39307443,0.014112568,0.0150229339999999,-0.000509783,0.100425344,-0.013917511,-10.2481307
20.4,1.600000024,26.0,22.47931862,21.93099213,-79.7813953,40.45804797,271.1165194,0.011099307,0.001072403,-0.227356538,0.97374773,-0.132061981,0.053236689,0.424267473,0.059298337,0.097281404,-0.046505485,0.094456177,-0.177234442,-10.1879839
20.51,1.7000000480000002,28.0,22.52188873,21.12786293,-79.78139508999999,40.45804812,271.16668930000003,0.012261171,0.000235572,-0.226745352,0.973876953,-0.112897351,0.066737564,0.418110779,0.109939083,0.166668415,0.031499155,-0.015677018,-0.050812103,-10.04032767
20.7,1.7000000480000002,30.0,22.43048859,21.54930687,-79.7813953,40.45804832,271.2515625,0.016788516,-0.002489062,-0.227010563,0.973744392,-0.13159081,0.057241933,0.427305379,0.027266482,0.086489268,0.056677759,0.147292925,-0.112956302,-9.894969399
20.9,1.7000000480000002,31.0,22.48056984,21.17557335,-79.78139533999999,40.45804842,271.30627389999995,0.017174182,-0.003227921,-0.228521466,0.973382056,-0.162609921,0.056301329,0.422279424,-0.0487464,-0.026798313,-0.055197436,0.327125184,-0.244929046,-9.764786405
21.0,1.600000024,37.0,23.41209602,6.067203522000001,-79.7813953,40.45804847,271.4095559,0.016435405,-0.002224854,-0.229766905,0.973104417,-0.133951436,0.030338685,0.400403589,0.024423348,-0.011877396,0.0767121759999999,0.235315383,-0.07003841,-9.666949623
21.1,1.600000024,41.0,22.60076714,22.37629128,-79.78139544,40.45804853,271.44421,0.018131819,-0.0016602989999999,-0.230434075,0.972917616,-0.138249381,0.015618239,0.258100284,0.044221073,0.016227039,-0.010497464,0.257753982,-0.101986697,-8.614796961
21.3,1.5,42.0,22.19259834,24.7936306,-79.78139562,40.45804868,271.5082039,0.015178879,0.005028339,-0.231356964,0.972737551,-0.164482543,0.006885444,0.154229346,-0.045264419,-0.034460738,-0.004367865,0.198377426,-0.222436233,-9.484646888
21.4,1.5,44.0,22.14376831,26.36013031,-79.78139578999999,40.45804873,271.526153,0.015660815,0.005789594,-0.231287494,0.9727422,-0.155071435,-0.008709443,0.205600473,0.013639993,0.05456074,0.014107485,0.166374372,-0.090139982,-10.10077502
21.6,1.600000024,46.0,21.92716408,30.13722229,-79.78139589999999,40.45804883,271.634243,0.019848844,0.004524149,-0.230360225,0.972892523,-0.144275154,-0.017770086,0.472126676,-0.070508331,0.094277002,-0.051715482,0.165479236,-0.264197815,-11.00369036
21.8,1.600000024,48.0,21.62291527,33.5087738,-79.78139605999999,40.45804885,271.6895508,0.020636879,0.000911576,-0.229666665,0.973050177,-0.137340842,-0.024001495,0.638085991,-0.04190696,0.068436868,0.012027903,0.32972873,-0.031719825,-11.74755209
21.9,1.7000000480000002,50.0,21.70930672,31.10733986,-79.78139634,40.45804902,271.8604474,0.017007548,-0.000391401,-0.229818508,0.973084867,-0.151880085,-0.014587162,1.052125875,0.091630667,0.0045138359999999,-0.02190597,0.28715307,0.017324048,-12.03049535
22.01,1.7000000480000002,51.0,21.70429993,32.74540329,-79.78139635,40.45804901,271.9861211,0.016609801,0.001731384,-0.229773074,0.97310102,-0.160117273,-0.021305505,1.25983541,0.027354097,0.018082056,0.009054114,0.335496496,-0.124496559,-11.99182888
22.21,1.7000000480000002,54.0,21.61039543,31.73552895,-79.78139653,40.45804897,272.2915434,0.018117866,0.004628089,-0.227234006,0.973660648,-0.160712165,-0.023865139,1.6907690219999998,0.024594722,-0.0159444119999999,-0.032425739,0.387579474,-0.069745232,-12.01176672
22.31,1.7000000480000002,53.0,21.59036255,33.16684723,-79.78139671,40.45804895,272.4708695,0.018016076,0.0085675259999999,-0.224615633,0.974243283,-0.149934922,-0.017277969,1.887314767,0.037811685,-0.061673872,-0.086705774,0.402877434,-0.177260992,-11.81241058
22.5,1.899999976,49.0,21.57784271,32.45119095,-79.78139679,40.45804885,272.8918147,0.012179362,0.010955273,-0.221959516,0.974918246,-0.131266369,-0.027862488,2.277132154,-0.081978843,-0.092564546,-0.041478597,0.300526346,-0.011132413,-11.88041252
22.7,2.099999905,47.0,21.68301392,30.09746361,-79.7813967,40.45804868,273.39383639999994,0.013580634,0.007499606,-0.222174913,0.974883437,-0.054177693,-0.04292057,2.66132831,0.034851197,0.02479925,0.049911041,0.340589348,0.054429757,-11.70586027
22.81,2.200000048,50.0,21.83952141,29.14325142,-79.78139673,40.45804861,273.6674447,0.012885617,0.007397515,-0.222718492,0.974769592,-0.041772873,-0.023750954,2.8068722489999995,-0.040345889,-0.00042194,-0.009040444,0.315284938,-0.110634647,-11.36320993
22.9,2.299999952,54.0,21.9021225,27.99024391,-79.78139675,40.45804853,273.9539313,0.009695336,0.005387431,-0.223543987,0.974630773,-0.035734576,-0.016105258,2.918764189,-0.042851556,-0.029538412,0.016655331,0.199020217,-0.060933729,-10.72660134
23.1,2.400000095,53.0,22.00604248,24.49146461,-79.78139655,40.45804836,274.5479187,0.006284374,0.007819145,-0.228246942,0.973551571,0.019886556,-0.02316552,3.045610895,0.206820965,0.059949551,0.112120144,0.075254177,-0.074806111,-10.48110833
23.3,2.5,54.0,22.14376831,24.27676582,-79.78139628999999,40.45804823,274.8511166,0.006738762,0.01615585,-0.230947942,0.972808659,0.018174909,-0.013346179,3.042869957,0.189410225,0.021502316,0.0327323079999999,0.289512768,-0.151109156,-9.791207049
23.4,2.599999905,62.0,22.08116722,25.16736412,-79.78139612,40.45804813,275.455379,0.00945607,0.020797053,-0.232720524,0.972275317,-0.025937387,0.015292495,2.994609833,-0.028220393,0.05417135,-0.073858425,0.295072941,-0.332367907,-9.559657894
23.6,2.700000048,61.0,22.02983284,25.31844902,-79.78139567999999,40.45804792,276.0116229,0.010951872,0.016551003,-0.229846224,0.973024607,0.043410647,0.080810514,2.902018895,-0.036431797,-0.087721027,-0.053922255,0.497695408,-0.223313096,-9.560688758
23.7,2.799999952,66.0,22.03358841,25.28664017,-79.78139562,40.45804767,276.235723,0.006929161,0.016450996,-0.228980392,0.973267376,0.055975574,0.067413287,2.823814817,-0.087174289,-0.144161865,-0.066083588,0.374871756,-0.260529198,-9.556602139
23.8,2.799999952,70.0,22.09619141,24.41194534,-79.78139542,40.45804763,276.5165247,0.004119426,0.013008001,-0.226295784,0.973963022,0.084131664,0.057284718,2.797598067,-0.096957296,-0.005688527,-0.029374389,0.283000944,-0.186217264,-9.549242833
24.0,2.799999952,88.0,22.07740974,24.89700508,-79.78139533999999,40.45804741,277.0516572,0.0075925509999999,0.0053050869999999,-0.222661123,0.974851966,0.11273127,0.057634371,2.711635755,-0.050961018,0.027797243,-0.014239228,0.216240377,-0.066556183,-9.538557631
24.1,2.900000095,94.0,22.05362129,25.31049728,-79.78139514,40.45804739,277.3213248,0.007719436,0.003118443,-0.222052574,0.974999189,0.133182111,0.099101289,2.684370199,-0.01251151,-0.016540542,-0.040337261,0.383130875,-0.1643194409999999,-9.613976188
24.3,2.799999952,95.0,21.96096992,26.03410721,-79.78139428,40.45804723,277.9979729,0.003447133,0.004496296,-0.22339043,0.97471267,0.153907841,0.122183417,2.728397455,-0.065123051,-0.066755496,-0.065728195,0.301430125,-0.217020286,-9.77301753
24.4,2.799999952,95.0,22.02482414,25.42977333,-79.78139403,40.45804724,278.27123880000005,0.001667964,0.005365211,-0.222071499,0.97501421,0.155836372,0.128962733,2.74030266,-0.03762266,-0.008209486,-0.048337426,0.332323724,-0.215347105,-9.951768082
24.6,2.900000095,108.0,22.12999535,23.79965973,-79.78139311999999,40.45804749,278.931147,0.004141472,0.00113386,-0.216210425,0.976337433,0.147356292,0.196891602,2.805182662,-0.09420114,0.008225217,0.014393503,0.43376071,-0.11224846,-9.802569358
24.71,2.900000095,116.0,21.97348976,25.71603775,-79.78139261,40.45804757,279.2728838,0.003737057,0.001509243,-0.213911563,0.976844788,0.1654423559999999,0.234020475,2.808755389,0.080533534,-0.004120871,0.056370627,0.354318355,0.002037124,-9.623839856
24.9,2.900000095,112.0,22.04861259,24.60278893,-79.78139204,40.45804784,279.83241789999994,0.000983843,-0.002799638,-0.215421841,0.976516664,0.138654783,0.28446476,2.774430395,-0.091600247,-0.03450406,-0.043529209,0.218971429,-0.094116317,-9.543765162
25.1,2.799999952,113.0,22.03734398,25.12760544,-79.78139148999999,40.4580479,280.1634106,0.003037401,-0.0059539,-0.217318311,0.976077974,0.150931361,0.279043456,2.770227419,-0.077111237,0.037701964,0.003309035,0.205671242,0.033581784,-9.633679551
25.2,2.799999952,115.0,21.93217278,26.41579247,-79.78139048,40.45804833,280.7694077,0.00817369,-0.0086060169999999,-0.218513221,0.975761831,0.146522833,0.367038451,2.785286742,0.000611555,0.010744672,-0.017036438,0.197142475,-0.051859275,-9.721869596
25.4,2.799999952,119.0,21.91589546,26.43169594,-79.78138998,40.45804879999999,281.3303475,0.006518336,-0.007951153,-0.214529082,0.97666347,0.097075307,0.383945396,2.803843642,0.004980694,-0.003957448,0.005472642,0.160194249,-0.051511202,-9.862420288
25.5,2.700000048,117.0,22.05362129,24.84929276,-79.78138938,40.45804904,281.6729817,0.004997681,-0.007019497,-0.213217914,0.976966739,0.091348182,0.392589935,2.870321397,0.092858382,0.042066265,-0.029022649,0.159111984,-0.063928737,-9.955538367
25.7,2.700000048,118.0,22.02231979,24.23700714,-79.78138917,40.45804932,281.9614548,0.004405101,-0.006422587,-0.210685,0.977522969,0.059918432,0.396385748,2.883745114,0.089265503,0.054520879,-0.083259545,0.182205416,-0.17727276,-9.873910067
25.8,2.599999905,120.0,22.01480675,24.37218666,-79.78138847999999,40.45804999,282.571526,0.006758843,-0.006557568,-0.207349509,0.978221655,0.004322578,0.439142725,2.894729812,-0.094587542,0.00549673,-0.071263269,0.282023581,-0.06637931,-9.730334026
26.01,2.599999905,121.0,22.01105118,24.82543755,-79.78138788999999,40.45805072,283.1723294,0.0072096259999999,-0.015422304,-0.204819366,0.978651762,-0.011630772,0.479453237,2.855166603,-0.162438288,0.02893962,0.002784029,0.247218926,-0.017774156,-9.519267082
26.1,2.599999905,119.0,21.96848106,25.4456768,-79.78138776,40.4580511,283.4573159,0.010188716,-0.021483785,-0.203729481,0.978738487,-0.012315501,0.490077148,2.83160147,-0.101081975,0.096453771,-0.047352035,0.301720914,-0.072165961,-9.584410327
26.2,2.599999905,119.0,21.90963554,25.80350685,-79.78138752,40.45805163,283.7744565,0.013442026,-0.027130369,-0.203777105,0.978549063,-0.039610384,0.535298637,2.853537222,-0.028361339,0.104754128,0.012255097,0.3442494129999999,-0.110983789,-9.704271231
26.4,2.599999905,134.0,22.01355553,24.73001671,-79.78138754999999,40.45805251,284.3461346,0.020662358,-0.028417516,-0.203076407,0.978532374,-0.11902001,0.557380787,2.83601071,-0.021696953,0.0359135379999999,-0.017193256,0.427217127,-0.054389987,-9.734123606
26.5,2.599999905,139.0,21.87207413,25.95458984,-79.78138727,40.45805299,284.6620812,0.021474225,-0.025793226,-0.205269843,0.978129804,-0.149963229,0.579888292,2.8628267860000003,0.034719661,0.055591758,-0.0525352209999999,0.325518917,-0.067669626,-9.779039578
26.7,2.599999905,142.0,22.03609276,23.9905014,-79.78138733,40.45805383,285.2561783000001,0.025594765,-0.023413826,-0.202194378,0.978730977,-0.259443058,0.52241727,2.904920368,0.02406791,0.095547244,-0.121505089,0.309167873,-0.183899245,-9.947106682
26.9,2.599999905,144.0,21.92465973,25.67627716,-79.78138759,40.45805426,285.5477719,0.029186174,-0.023396565,-0.200427815,0.978994191,-0.305202656,0.507717069,2.898014938,0.040996823,0.071338117,-0.064850159,0.289335452,-0.065112346,-9.837493608
27.0,2.700000048,150.0,21.97223854,25.43772507,-79.78138809,40.45805511,286.1339173,0.032987807,-0.020946652,-0.201282471,0.978753507,-0.387746962,0.480764475,2.902514863,0.130674452,0.036610011,0.08964064,0.32954838,-0.12291549,-9.867399777
27.1,2.700000048,153.0,21.93843269,25.39796638,-79.78138852,40.45805551,286.4252705,0.035433467,-0.019329738,-0.19959034,0.979047835,-0.448344224,0.451637706,2.902989957,0.024935706,0.019973736,-0.0176982119999999,0.319829467,-0.172836422,-9.828928607
27.3,2.799999952,155.0,21.86831856,26.13748169,-79.78138931,40.4580563,287.0094552,0.041351274,-0.015892055,-0.201027855,0.978583336,-0.524090572,0.4067569720000001,2.899854555,0.078834742,0.11271546,-0.025745524,0.261732702,0.042349857,-9.775545866
27.4,2.900000095,156.0,21.98100281,24.76182365,-79.78138989,40.45805663,287.300877,0.04683828,-0.015200686,-0.200030103,0.978551567,-0.56213972,0.375059496,2.89925948,0.116118714,0.1324929,-0.001452259,0.339397211,-0.087402581,-9.811900345
27.6,2.900000095,155.0,21.89461136,25.17531586,-79.78139112,40.45805726,287.877562,0.053935274,-0.014980136,-0.201879784,0.97780937,-0.647617487,0.314448542,2.888914853,0.003527361,-0.0344808329999999,-0.030547304,0.416320731,-0.14943719,-9.82873214
27.8,2.900000095,155.0,21.95721245,24.90495682,-79.78139257,40.45805755,288.4572911,0.058778241,-0.009565101,-0.199299946,0.97812742,-0.685443411,0.177142002,2.8721297210000003,0.082519285,0.046110142,-0.022871558,0.200262495,-0.015637076,-9.602042606
27.9,2.900000095,154.0,21.95471001,24.52327156,-79.78139342,40.45805763,288.7433495,0.060076181,-0.006917417,-0.197948858,0.978345275,-0.7087213240000001,0.103727997,2.853437659,0.113739982,0.045023136,0.032131046,0.276211961,-0.016565299,-9.622470438
28.0,2.900000095,156.0,21.8758297,25.73194122,-79.7813942,40.45805767,289.0340104,0.060948621,-0.003436098,-0.199068218,0.978082478,-0.735447629,0.040915083,2.846388947,0.129416645,0.02531402,-0.058688104,0.327530725,-0.08882963,-9.64041262
28.2,3.0,153.0,22.00228691,22.91701317,-79.78139594999999,40.45805757,289.6047215,0.062464859,0.0058169719999999,-0.201856375,0.977403939,-0.770378715,-0.09178316,2.846405185,0.128519148,-0.028080652,-0.032656718,0.345993491,0.010919812,-9.736223926
28.4,3.099999905,153.0,22.20261574,20.34858894,-79.78139690000002,40.45805741,289.8869461999999,0.064054884,0.011163389,-0.200249478,0.977585077,-0.763891193,-0.184303642,2.81914582,0.126152515,0.025059903,-0.012709369,0.422497913,-0.117992774,-9.187871457
28.5,3.099999905,156.0,22.22014427,20.60304642,-79.78139879999999,40.45805685,290.4401268000001,0.074677706,0.022248555,-0.202443063,0.976189137,-0.762365552,-0.326727848,2.661099569,0.1780853869999999,0.1288404169999999,-0.012568223,0.320476315,-0.045556507,-8.816639337
28.7,3.099999905,156.0,22.16254997,22.07412529,-79.78140058999999,40.45805595,290.94986,0.084135704,0.032692879,-0.201435894,0.97533381,-0.701454424,-0.464267296,2.458364918,0.104382269,0.034602325,0.003241961,0.478695868,-0.035083705,-8.59685478
28.8,3.200000048,127.0,22.25269699,19.8396759,-79.78140149,40.45805539,291.1850209,0.085890196,0.03834141,-0.200116664,0.975246668,-0.640297565,-0.557181024,2.347479786,0.128428504,-0.002611045,0.039696176,0.499389858,-0.188983527,-8.61999689
28.9,3.200000048,111.0,22.12999535,20.90521431,-79.78140232999999,40.45805474,291.4072384,0.0847593169999999,0.04411849,-0.198772982,0.975376248,-0.575348191,-0.646535049,2.228783974,0.076846555,-0.116808005,-0.007606554,0.5621832170000001,-0.124460132,-8.549482393
29.1,3.299999952,114.0,21.94719696,23.75990105,-79.78140368999999,40.45805305,291.8145852,0.076158546,0.057174776,-0.196383163,0.975891709,-0.397277557,-0.841926471,2.022042068,0.117485993,-0.088503808,-0.0152566,0.62086569,-0.175204636,-8.716129793
29.3,3.400000095,116.0,22.03108406,23.28279495,-79.78140416,40.458052,292.0088238,0.07044179,0.063769542,-0.194881111,0.976213515,-0.296359331,-0.922990834,1.984351256,0.115678988,-0.1360641269999999,-0.034242116,0.7028036,-0.199248167,-9.219280361
29.4,3.5,113.0,22.08241844,22.65460396,-79.78140502,40.45804993,292.3708213999999,0.058765829,0.077371687,-0.19257462,0.976460576,-0.059861123,-1.051890831,1.879125622,0.099734887,-0.184896141,0.117004506,0.7042138029999999,-0.123901312,-9.309958981
29.6,3.599999905,111.0,22.04485703,22.53532791,-79.78140517,40.45804746,292.736937,0.043837983,0.086382829,-0.192359045,0.976531744,0.197611711,-1.109802161,1.827344931,0.038441621,-0.126847044,0.052169289,0.573389259,-0.1434218119999999,-9.305611576
29.7,3.700000048,112.0,22.04861259,23.29074669,-79.78140503,40.45804611,292.9440598000001,0.034949016,0.089510858,-0.192969516,0.976488173,0.315774424,-1.117363973,1.843827655,-0.042301308,-0.145997822,-0.122405924,0.6716225920000001,-0.353627031,-9.389603321
29.9,3.700000048,112.0,22.00479126,23.21122742,-79.78140477,40.45804486,293.1106133,0.025873223,0.093796499,-0.191843182,0.976590514,0.477725858,-1.112624201,1.806284803,0.093147039,-0.218608841,-0.131910115,0.6899589490000001,-0.447019125,-9.651869069
30.0,3.799999952,117.0,21.92465973,23.489540100000006,-79.78140374,40.45804216,293.4708962,0.007075232,0.103539079,-0.192591339,0.975775778,0.738996848,-1.062897811,1.830076335,0.043910131,-0.265796334,0.095906414,0.708838,-0.43360543,-9.751298633
30.2,3.900000095,120.0,22.06614113,22.87725449,-79.78140212,40.45803953,293.8631844,-0.013004222,0.106254786,-0.19570905,0.974802017,0.983306072,-0.941982911,1.893493253,-0.106582783,-0.258200347,0.100957617,0.607437231,-0.6988269090000001,-9.762093762
30.3,4.0,117.0,21.93467712,23.72014236,-79.78140091,40.45803838,294.0305848000001,-0.023514844,0.102266379,-0.194744542,0.975224733,1.15296622,-0.8282575109999999,1.876430714,-0.050162058,-0.174520537,0.013303513,0.636544853,-0.624178576,-9.649889202
30.4,4.0,116.0,23.24682617,4.890340805,-79.78139956,40.4580373,294.1949276,-0.025527585,0.073796801,-0.197058469,0.977276981,1.203299427,-0.776512981,1.790692185,-0.966424584,0.448241621,-0.113250546,0.521708863,-1.052481276,-6.908916818
30.6,4.099999905,124.0,22.35411263,18.10618973,-79.78139711,40.45803495,294.4690251,-0.02565651,-0.0646813879999999,-0.2020327,0.976903677,1.4248253969999998,-0.476411076,0.944782568,-0.7747141120000001,-0.331398338,0.033188116,0.992641017,-0.205562228,-6.949892936
30.7,4.099999905,175.0,22.49183846,16.61920738,-79.78139551,40.4580339,294.5298619,-0.053506039,-0.057965215,-0.2058319,0.975402772,1.4795993230000002,-0.335159892,0.58201612,0.504495203,-0.715317965,0.037489038,0.955681936,0.422701944,-7.681017087000001
30.91,4.199999809,171.0,22.34785271,18.57534409,-79.78139286,40.45803267,294.648827,-0.097503431,0.045261323,-0.214078709,0.970883608,1.254883609,-0.048651542,0.355790501,0.890863121,-0.346374691,-0.17419745,0.188488742,-0.405097768,-8.175752342000001
31.11,4.199999809,168.0,22.06488991,23.13966179,-79.78139119,40.45803212,294.6608452,-0.101599038,0.081044652,-0.215523303,0.967811465,1.205987465,0.13994611,0.400742539,0.560534775,-0.023301525,-0.12855041,0.311973879,-0.8370549409999999,-9.246185739
31.21,4.099999905,119.0,22.00854683,21.36641693,-79.78138784,40.45803166,294.6855988,-0.091656908,0.096789517,-0.215591401,0.967342436,1.276040485,0.6036362239999999,0.576212001,-0.093796939,0.165627629,-0.107245132,0.049076174,-0.819068613,-9.723333154
31.3,4.099999905,110.0,22.00604248,23.25893784,-79.78138597,40.4580318,294.7092022,-0.084895082,0.086343765,-0.214209482,0.969253302,1.334564628,0.821479537,0.645200048,-0.281926423,0.1671354619999999,0.115434401,0.254504684,-0.74966728,-10.17141289
31.5,4.099999905,103.0,22.08742714,21.55725861,-79.78138165,40.45803222,294.76986360000006,-0.068648368,0.042666085,-0.208953753,0.974579692,1.434896256,1.189326946,0.69203192,-0.442294329,0.271120101,0.12475311,0.118205174,-0.680344299,-10.18847273
31.6,4.099999905,100.0,22.11997986,20.4678669,-79.78137940000002,40.45803279,294.8028607,-0.06437806,0.014346678,-0.205606773,0.976409554,1.423069861,1.369566315,0.62972998,-0.626980424,0.134555578,-0.075350381,0.334943752,-0.589544239,-10.07428362
31.8,4.0,112.0,22.10996437,24.15748978,-79.78137532,40.45803366,294.9809384,-0.0644673259999999,-0.042613495,-0.198103249,0.977130055,1.278250934,1.558727241,0.517190801,-0.553994775,-0.01945065,0.083179452,0.1681682789999999,-0.413934446,-9.722901045
32.0,4.0,126.0,22.26021004,19.98280716,-79.78137092,40.45803571,294.9600377,0.008282475,-0.02939678,-0.206582338,0.97795254,1.183418433,1.662857,0.228828322,0.906296253,0.850617945,0.373083293,0.001335413,0.262377174,-8.920689955
32.1,3.900000095,120.0,22.17006111,21.71629524,-79.78136896,40.45803672,294.978228,0.051521715,-0.005103088,-0.224920809,0.973000646,1.0287623540000002,1.714846712,0.0056466569999999,0.336026967,0.340886921,0.602854133,0.762735807,-0.6002487,-8.553613451
32.2,3.900000095,117.0,21.99853134,22.95677185,-79.78136654,40.45803788,294.9735932,0.054614171,-0.00775449,-0.248162732,0.967146516,0.878310503,1.7689821369999998,-0.111946703,-0.401103884,-0.313303113,0.450891972,0.443795445,-0.605724216,-9.600328787
32.41,3.700000048,128.0,22.1274929,20.78593636,-79.78136304,40.45803999,294.98634,0.013092366,-0.041172788,-0.290489703,0.955902338,0.5772569470000001,1.717696136,-0.075486012,-0.396734357,-0.444636285,0.304936051,0.239245224,-0.256231495,-9.91048557
32.6,3.599999905,135.0,22.08241844,22.58303833,-79.78136126,40.45804139,294.933495,-0.0024853,-0.047601745,-0.305686176,0.950938404,0.390453439,1.737603284,-0.042625411,-0.095597506,-0.1723764689999999,0.158666626,0.269411064,-1.715541205,-9.867528416
32.7,3.299999952,128.0,21.78568268,26.4237442,-79.78135831,40.4580436,294.8671402,-0.066754788,-0.118165031,-0.319263697,0.937897444,-0.173982506,1.807955275,0.015202415,-1.844876885,-0.527990341,0.111631371,0.147912108,-1.085672265,-9.898420426
32.8,3.200000048,126.0,21.42133522,31.51288033,-79.78135728999999,40.45804509,294.8680367,-0.108694054,-0.1712162789999999,-0.319107533,0.925765157,-0.404963312,1.870241913,0.258708082,-0.521875799,-0.38552615,0.036222342,0.035362626,0.491583131,-10.59045945
33.0,2.900000095,130.0,21.74812126,25.38206291,-79.78135591,40.45804867,294.8335232,-0.12058197,-0.127545878,-0.325980693,0.928939581,-0.972504085,2.032649794,1.007039464,0.946619868,-0.06446261,-0.048769418,-0.111472598,0.6594271270000001,-11.81429104
33.2,2.799999952,121.0,21.81573105,25.63651848,-79.78135558999999,40.45805101,294.8679223000001,-0.107254058,-0.0820645909999999,-0.329131752,0.934577107,-1.297455823,2.144032094,1.177782483,0.958259106,0.059917893,0.04869112,-0.193103109,-0.234667694,-11.15583141
33.3,2.5,111.0,21.8495369,25.18326759,-79.78135526999999,40.45805625,294.8840622,-0.079521962,-0.032484684,-0.326583385,0.941256821,-1.819356908,2.413058583,1.18872882,0.265690476,0.257060558,-0.061300181,-0.195263802,-0.193077911,-11.04890221
33.5,2.5,105.0,21.83952141,24.56303024,-79.78135522,40.45805922,294.9428811,-0.066275738,-0.032696199,-0.323325098,0.94339782,-1.974780681,2.546923381,1.201752813,-0.040422626,0.307301283,-0.054197609,0.01461348,0.014568767,-10.83662489
33.61,2.299999952,76.0,21.9071312,22.43195343,-79.78135529999997,40.45806535,294.9798417,-0.0454186459999999,-0.05048671,-0.314770103,0.946735442,-2.150341225,2.77168662,1.224773639,-0.108949013,0.198489174,-0.113854088,0.053980175,0.132072065,-10.7283941
33.7,2.299999952,78.0,21.95596123,23.87917709,-79.78135558,40.45806833,294.9110188,-0.038770575,-0.058958314,-0.309179842,0.948382199,-2.241844271,2.823360619,1.17496141,-0.076542147,0.086564086,0.019570811,0.033118227,0.18555397,-10.39935724
33.9,2.299999952,68.0,21.95345688,22.47171402,-79.78135620000002,40.45807522,295.0639958,-0.039311968,-0.070017882,-0.30840075,0.947861314,-2.443738196,2.93480938,1.261313928,-0.085650727,-0.068271101,0.036854211,0.055314605,0.273609383,-10.24521177
34.1,2.299999952,62.0,21.86706543,24.10182762,-79.78135698,40.45807842,294.9550328,-0.042759627,-0.0722206609999999,-0.304544955,0.948793054,-2.590704592,2.903275319,1.229331095,0.001562109,-0.089393593,0.020619236,-0.293826789,0.179338416,-10.06578996
34.2,2.5,59.0,21.98726273,21.6844883,-79.78135913,40.4580852,294.8351635,-0.026422882,-0.07822337,-0.298006862,0.950986266,-2.880818897,2.809356015,1.222278402,0.086048007,0.464751124,-0.056917541,-0.417034895,0.236003674,-10.14589564
34.4,2.599999905,54.0,21.97474289,22.96472359,-79.7813614,40.45809261,294.9607491000001,0.021314366,-0.09368065,-0.29493922,0.950673699,-3.136753077,2.791386275,1.005006049,-0.07734222,0.51154387,-0.020285899,-0.103895959,0.320015299,-9.850580846
34.5,2.799999952,44.0,21.97474289,21.74015045,-79.78136354,40.45809596,294.7076897,0.038264312,-0.102096856,-0.289842397,0.950843573,-3.315346405,2.662694062,0.75783439,-0.055053677,0.30304879,0.025333153,-0.241066979,0.31034521,-9.793819585
34.61,3.0,39.0,22.05737686,21.63677597,-79.78136524,40.45809962,294.7517304,0.048476815,-0.106879316,-0.286957502,0.950727284,-3.418732873,2.551672993,0.695258045,0.097791113,0.216960341,0.065131404,-0.142604271,0.449083813,-9.825739535
34.8,3.099999905,56.0,21.986009600000006,22.84544563,-79.78137092,40.45810627,294.5209412,0.057100069,-0.101042368,-0.276009411,0.954122066,-3.701094619,2.216433481,0.5405087679999999,0.190426528,0.005199385,-0.103484944,-0.164600893,0.39173688,-9.731923299
34.9,3.200000048,59.0,21.98851395,22.1854496,-79.78137342,40.45810969,294.54490130000005,0.057099566,-0.093276657,-0.274160892,0.955444872,-3.805410566,2.05434514,0.524120021,0.205748767,-0.014163593,0.023281783,-0.125769004,0.458521073,-9.976557938
35.1,3.299999952,52.0,22.14376831,20.35654068,-79.78137899,40.45811709,294.4524025,0.0612909309999999,-0.077405922,-0.276600659,0.955899537,-4.03267667,1.763369176,0.454840631,0.111337833,0.094186582,0.051902283,0.000834562,0.513363826,-9.998745782
35.3,3.299999952,48.0,22.06864548,21.45388603,-79.78138541999999,40.45812368,294.4283833,0.078633554,-0.066308714,-0.277547359,0.955189824,-4.163212365,1.430887089,0.323596497,0.1747486889999999,0.103795893,0.031088388,0.067244688,0.444480776,-9.676059
35.4,3.400000095,39.0,22.00103569,21.70039177,-79.78138876999999,40.45812669,294.4409699,0.088302068,-0.055903573,-0.27679038,0.955230176,-4.175618555,1.249749777,0.227407733,0.284349591,0.105428442,-0.082418978,0.018372765,0.452132223,-9.596380162
35.5,3.400000095,43.0,22.11371994,21.10400772,-79.78139254999999,40.45812982,294.4272599,0.097088806,-0.042551,-0.277736932,0.954790831,-4.200881202,1.079503561,0.138950345,0.31211254,0.103997447,0.130650714,-0.020462914,0.452202535,-9.637632853
35.7,3.400000095,36.0,22.10620689,20.39629936,-79.78140017999999,40.45813519,294.4140248,0.113842271,-0.018862767,-0.275238037,0.954425633,-4.137673812,0.658265717,-0.114879643,0.291696697,0.144067094,-0.013143579,0.037600041,0.445903111,-9.514634333
35.9,3.400000095,33.0,22.1850872,18.86956024,-79.78140771,40.4581398,294.408873,0.126214743,-0.000848886,-0.270193458,0.954497039,-3.96351877,0.221968957,-0.35503847,0.199214339,0.031057548,-0.027093662,0.096042692,0.461623131,-9.358524785
36.01,3.299999952,64.0,22.24894142,18.85365677,-79.78141185999999,40.45814179,294.3577637,0.13001284,0.010394788,-0.268229187,0.954485118,-3.848776976,0.025556456,-0.454373127,0.264954388,-0.004924073,-0.036226124,0.201960819,0.364527264,-9.205071627
36.1,3.200000048,81.0,22.14126396,19.45003891,-79.78141568,40.45814359,294.334721,0.132880315,0.025132025,-0.265311837,0.954631329,-3.696398608,-0.186258905,-0.5883416539999999,0.347224057,-0.00882049,-0.002292643,0.244978053,0.241545701,-9.218084021
36.31,3.0,73.0,21.97223854,22.42400169,-79.78142355,40.45814645,294.2338031999999,0.137133539,0.055774592,-0.258677781,0.954551935,-3.323142712,-0.568482553,-0.814981645,0.308120787,-0.091030106,0.015342803,0.402370773,0.443021822,-9.431578143
36.4,3.0,68.0,21.92966843,22.53532791,-79.78142722,40.45814759,294.1897721,0.135425001,0.069583572,-0.254944772,0.95489347,-3.101341718,-0.72906507,-0.870366135,0.124613352,-0.168042541,-0.078875832,0.323667579,0.157248403,-9.724104987
36.61,2.900000095,176.0,22.03108406,22.22520828,-79.78143456,40.45814907,294.0778012,0.125310972,0.087213062,-0.250425845,0.956022024,-2.612550943,-1.016361704,-0.88278029,0.102505155,-0.1693325339999999,0.106178463,0.421637056,0.081517495,-9.984098507
36.8,2.799999952,187.0,21.80696678,24.38809013,-79.78143824,40.45814949,294.0340371000001,0.116043597,0.091989771,-0.250295997,0.956777751,-2.395874862,-1.123003699,-0.836208307,0.106570832,-0.222620636,0.076042362,0.464262308,0.141178464,-10.24085442
36.9,2.599999905,175.0,21.74686813,25.01628113,-79.78144422999999,40.45814979,293.94397589999994,0.089982323,0.105360605,-0.249792904,0.958335042,-1.890112181,-1.279671786,-0.713594535,0.078243829,-0.32272476,0.00997236,0.621110689,0.124576135,-10.42887281
37.0,2.599999905,167.0,21.83200836,24.73796844,-79.7814473,40.45814975,293.9294724,0.071949199,0.114356644,-0.251042187,0.958500743,-1.665407453,-1.297497267,-0.617239006,0.185731038,-0.3846673370000001,0.092832394,0.505293061,0.113034362,-10.58886199
37.2,2.5,185.0,21.82449532,23.6644783,-79.78145273999999,40.45814932,293.938662,0.036334325,0.127706349,-0.25513041,0.957747102,-1.245185253,-1.265957327,-0.447795188,-0.033272151,-0.361222625,0.046594124,0.447717685,-0.033259682,-10.70454681
37.3,2.5,187.0,21.85955429,24.71411324,-79.78145468,40.45814888,293.925776,0.019473013,0.128583521,-0.255821288,0.957936645,-0.986491991,-1.201097617,-0.3688341470000001,-0.105814569,-0.326409131,0.059126146,0.513890186,-0.200773615,-10.67114985
37.51,2.5,169.0,21.77816963,25.04013634,-79.78145852,40.4581476,293.8608040000001,-0.00991272,0.124595307,-0.262057424,0.956924081,-0.596657983,-1.032049394,-0.231484129,-0.047441974,-0.232678652,0.116596535,0.402863803,-0.168976949,-10.62826053
37.7,2.599999905,161.0,21.67049408,26.14543343,-79.78146056,40.45814581,293.7763199,-0.027288763,0.120725267,-0.265157372,0.956228197,-0.202462406,-0.793078645,-0.060386589,-0.025132407,-0.249833226,0.066738583,0.61126829,-0.26906807,-10.74997734
37.8,2.700000048,163.0,21.7919426,24.45965576,-79.78146109,40.45814532,293.7866845000001,-0.035142366,0.120885938,-0.263443857,0.95642513,-0.027821558,-0.613170368,0.065273941,-0.0862888769999999,-0.18465659,0.03811153,0.616085299,-0.422506172,-10.83368608
37.9,2.799999952,157.0,21.86581421,23.3146019,-79.78146129999999,40.45814489,293.8037877,-0.043968074,0.118357882,-0.260554284,0.957167506,0.127515527,-0.416475721,0.179949757,-0.178502813,-0.13441205,-0.076715991,0.5142141579999999,-0.57542515,-10.76865919
38.1,2.900000095,144.0,21.79069138,23.95869446,-79.78146079,40.45814377,293.7730011000001,-0.063912742,0.101076499,-0.254882634,0.959548593,0.417774776,-0.033139335,0.312510491,-0.254270077,-0.148644522,0.0060652369999999,0.315367676,-0.5153450820000001,-10.41386769
38.3,3.0,138.0,21.89711571,21.74810219,-79.78146009999999,40.45814317,293.7333455,-0.073593713,0.0894336769999999,-0.253327072,0.960422277,0.518097268,0.154407883,0.34602036,-0.358397573,-0.169080287,0.100646131,0.421964683,-0.441897805,-10.37128592
38.4,3.200000048,134.0,21.95095253,22.39219475,-79.78145826,40.4581433,293.783318,-0.089730933,0.06820064,-0.250086963,0.961641133,0.6664157860000001,0.616858668,0.464990967,-0.185901389,-0.022072474,-0.111659192,0.421952221,-0.390891081,-10.19435386
38.6,3.299999952,138.0,22.01605988,21.95484734,-79.78145544,40.45814361,293.7846341,-0.102755539,0.050288312,-0.250719249,0.961276352,0.73460741,1.061133434,0.489541913,-0.14343363,-0.035227116,0.075908229,0.168641301,-0.515603785,-9.853550062
38.7,3.400000095,128.0,21.91339111,23.02038574,-79.78145353,40.45814377,293.7964119,-0.107270405,0.040710241,-0.253022671,0.960632801,0.7592604709999999,1.260480901,0.521417288,-0.292823106,-0.133179069,0.051632598,0.13257297,-0.702060127,-9.88723938
38.8,3.400000095,122.0,21.9021225,23.0760479,-79.78145190000001,40.45814457,293.8154797,-0.112047173,0.02933065,-0.252103537,0.960744023,0.732625759,1.4878797380000002,0.559340308,-0.206378609,-0.028916765,0.116595753,0.211322558,-0.353171058,-10.15716323
39.0,3.400000095,122.0,22.00103569,21.86737823,-79.78144788,40.45814665,293.8689141000001,-0.117643222,0.006018203,-0.24915731,0.961272359,0.646811957,1.967875978,0.674515723,-0.294660389,-0.067123055,-0.081804395,0.050513932,-0.60241809,-10.04140122
39.11,3.400000095,122.0,22.00228691,21.2948513,-79.78144601,40.45814811,293.8901162,-0.122501992,-0.003970109,-0.246062011,0.961473405,0.570424159,2.191277424,0.6950322609999999,-0.213008553,-0.034626752,-0.014216718,-0.021625945,-0.444145767,-9.906991274
39.3,3.299999952,112.0,21.88584709,22.61484528,-79.78144168,40.45815144,293.9415459,-0.128787845,-0.025666917,-0.238854915,0.962134778,0.406947264,2.618645768,0.780921703,-0.157996252,0.066362016,0.071191326,0.033236323,-0.264037418,-9.978306255
39.5,3.299999952,107.0,21.88083839,22.58303833,-79.78143743999999,40.45815595,294.0065979,-0.126767561,-0.046502493,-0.231270149,0.963473797,0.164477504,3.059523965,0.902538343,-0.245125249,0.088878803,0.062275227,0.030351087,-0.293020349,-10.0338513
39.6,3.299999952,104.0,21.90087128,22.38424301,-79.78143566,40.45815859,294.0243992,-0.125141203,-0.057809114,-0.228580132,0.963716209,-0.002652067,3.274297384,0.93393298,-0.235281229,0.066957228,0.016245881,-0.039070455,-0.386959851,-10.07369422
39.71,3.299999952,104.0,21.95846558,20.99268341,-79.78143345,40.45816138,294.0676255,-0.123370804,-0.068142213,-0.228578463,0.963269532,-0.124133293,3.458166192,1.001492035,-0.1687128989999999,0.154564321,0.029297847,-0.007108259,-0.196795863,-10.08015072
39.91,3.299999952,93.0,22.01355553,20.76208115,-79.78143041,40.45816781,294.1031231,-0.116234004,-0.0868447119999999,-0.230045468,0.962302923,-0.561898318,3.824474223,1.060055997,-0.234249026,0.025627702,0.186285377,-0.301826255,-0.237442746,-9.87094202
40.1,3.299999952,87.0,22.04110146,20.49172211,-79.78142765,40.45817508,294.1478142,-0.109303027,-0.105039299,-0.234579727,0.960204184,-1.029679188,4.105530546000002,1.114914,-0.114543736,0.088273443,0.0492302959999999,-0.349251487,-0.100667145,-9.793740647
40.2,3.400000095,86.0,22.07240105,20.34063721,-79.78142649,40.45817912,294.171801,-0.104562335,-0.112209521,-0.236124054,0.959542215,-1.288724635,4.223596603,1.151182446,-0.087227494,0.149233148,0.02608135,-0.483056611,-0.015956691,-9.682630101
40.3,3.5,85.0,22.06864548,20.72232246,-79.78142577,40.45818327,294.17787210000006,-0.098985426,-0.120019369,-0.236257106,0.959155798,-1.579521445,4.32454162,1.136373403,-0.1417465809999999,0.164514363,-0.003446751,-0.365360931,-0.053078484,-9.508592405
40.5,3.700000048,76.0,22.08116722,20.56328773,-79.78142487,40.45819216,294.1923985,-0.084968604,-0.132002696,-0.236124828,0.958958149,-2.105930441,4.477942699,1.115803245,-0.01005295,0.194547474,0.031531941,-0.426485092,-0.026113574,-9.52176092
40.6,3.799999952,72.0,22.05988121,21.10400772,-79.78142487,40.4581968,294.1820015,-0.0771674359999999,-0.134891436,-0.236783162,0.959053338,-2.384983995,4.532116214,1.074715802,0.06883356,0.241741046,-0.097868696,-0.549187816,0.071636212,-9.470810621
40.8,4.099999905,68.0,22.02607536,20.88931084,-79.78142546,40.45820653,294.1688447,-0.054639466,-0.137993425,-0.235645398,0.960439265,-2.93610547,4.557978966,1.007152529,-0.038007542,0.262411654,0.067378968,-0.456927378,0.21706076,-9.812838238
41.0,4.199999809,69.0,22.04485703,20.30883026,-79.78142627,40.45821151,294.1482129,-0.043860141,-0.1418519909999999,-0.232278869,0.96124959,-3.199952479,4.55943902,0.929995704,-0.021068642,0.204882115,0.040092438,-0.647408468,0.162534085,-9.67461123
41.1,4.5,60.0,22.02357292,19.76015854,-79.78142863,40.45822195,294.1339135,-0.028335469,-0.146957755,-0.225104287,0.962771356,-3.656396516,4.529932458,0.8691665540000001,0.054021135,0.195301682,-0.098175809,-0.586621362,0.3545398179999999,-9.715359891
41.21,4.599999905,56.0,22.06113434,19.86353111,-79.78143025,40.45822732,294.1309933,-0.019085603,-0.146262079,-0.220811635,0.964098215,-3.861936902,4.497144308,0.876244357,0.040610112,0.211615652,-0.067892566,-0.540493299,0.333215096,-9.683796036
41.41,4.900000095,53.0,22.02983284,19.64883423,-79.78143449,40.45823774,294.07342,0.00402732,-0.137882292,-0.213676214,0.967116833,-4.25626092,4.36026311,0.718327188,0.217102006,0.233604074,0.001652176,-0.445619704,0.564622346,-9.955884522
41.5,5.0,53.0,21.99727821,21.24713898,-79.78143713,40.45824322,294.0591378000001,0.0159151,-0.130380198,-0.211688444,0.968470871,-4.453365187,4.28325484,0.633974341,0.232238367,0.169500545,-0.069120713,-0.5093124729999999,0.638364433,-9.914005594
41.7,5.099999905,47.0,21.88208961,22.45580864,-79.78144313,40.45825377,294.0001912,0.04123091,-0.115684398,-0.210028753,0.969951153,-4.805953282,3.997662899,0.359633928,0.168017969,0.199535683,0.043283001,-0.534102292,0.6869539179999999,-9.849040689
41.9,5.099999905,44.0,21.92090416,21.23918724,-79.78145002,40.45826368,293.9372067,0.069149718,-0.103919812,-0.210900381,0.969505072,-5.069798582,3.572285323,0.095772791,0.192998752,0.20555222,0.116504744,-0.638887613,0.63393027,-9.899101042
42.0,5.199999809,44.0,22.01480675,20.80979156,-79.78145409999999,40.45826878,293.894751,0.0842384619999999,-0.095218845,-0.212177381,0.968926191,-5.20452289,3.330213591,-0.024936019,0.281267434,0.289060593,0.063776165,-0.548335841,0.840003765,-9.977382395
42.1,5.199999809,51.0,21.94344139,21.27099609,-79.78145809,40.45827338,293.8612351000001,0.099889643,-0.08446534,-0.212709606,0.968319416,-5.276773811,3.042849554,-0.186025294,0.315458685,0.254249603,0.036028616,-0.155692094,0.866793295,-10.06224771
42.3,5.099999905,45.0,21.97348976,21.6844883,-79.78146688999999,40.45828228,293.7679944,0.128521517,-0.06264849,-0.214229107,0.966262639,-5.360494333,2.412763309,-0.515811926,0.352015316,0.258615911,0.004756723,-0.427477694,0.908407125,-9.968031528
42.51,5.0,42.0,21.89210701,23.17942047,-79.78147138,40.45828624,293.7277321,0.1410098669999999,-0.048176963,-0.213750556,0.965456426,-5.333134565,2.066162523,-0.662480188,0.398716807,0.135016084,0.126454726,-0.122099986,0.516914767,-10.11127896
42.61,4.8000001910000005,69.0,22.00979996,20.60304642,-79.78148102,40.45829379,293.6246113,0.157580659,-0.018598925,-0.212679788,0.964152396,-5.213932825,1.412980147,-0.93788926,0.342169136,0.072345771,-0.0750739129999999,-0.227850517,0.776900321,-10.06146419
42.8,4.699999809,90.0,21.62667274,26.5748291,-79.78149090000001,40.45830002,293.5016751,0.17597951,0.013666342,-0.20850502,0.961961687,-4.933872136000001,0.74211788,-1.16016703,0.46484071,0.09767317,0.07741826,0.049577308,0.572419097,-10.12872939
42.9,4.400000095,82.0,21.60288239,27.57675171,-79.78149572999999,40.45830257,293.4472718,0.184899881,0.031281851,-0.204707339,0.960691631,-4.729441912,0.410607175,-1.21141321,0.380084991,0.069340102,-0.068166442,0.052856801,0.387537666,-10.57468366
43.0,4.199999809,77.0,21.47517395,29.54084015,-79.78150045,40.45830475,293.3945221,0.192512617,0.043231372,-0.200222358,0.959677517,-4.475742751,0.104111922,-1.18393904,0.196988419,0.1331620369999999,-0.054323506,0.189437398,0.152516251,-11.03809772
43.2,4.0,147.0,21.36624527,29.31818962,-79.78151007,40.45830805,293.29526180000005,0.186144948,0.050640404,-0.192915961,0.962064981,-4.055948619,-0.434343348,-0.875520986,-0.0166664789999999,-0.301401168,-0.029762572,0.609143923,0.490324408,-11.62688427
43.4,3.799999952,148.0,21.51774406,27.10759735,-79.78151462999999,40.45830916,293.2746434,0.1672545819999999,0.052921269,-0.188905329,0.966198862,-3.861439777,-0.638924578,-0.6211256279999999,-0.043140523,-0.505275071,-0.127642453,0.61607302,0.426595861,-11.77632273
43.51,3.599999905,137.0,21.66924095,24.57098198,-79.78152361,40.45831038,293.2409482,0.116265915,0.066300102,-0.183496147,0.973866403,-3.478941884,-0.927779444,-0.231266691,0.019756816,-0.490284026,0.037968248,0.607602049,0.326341072,-11.6439406
43.6,3.5,132.0,21.551548,27.77554703,-79.78152773,40.45831066,293.2584881,0.095248669,0.075388432,-0.182522252,0.975668967,-3.266434389,-1.047302733,-0.132948778,0.157961085,-0.369494855,0.010575764,0.540004545,0.282133253,-11.20119645
43.8,3.400000095,217.0,21.42383957,29.19891357,-79.78153556,40.4583105,293.274321,0.06874086,0.100326143,-0.182920143,0.97557658,-2.8052535830000003,-1.208452235,-0.012133183,0.185442328,-0.250070155,0.071146213,0.638660375,0.217796815,-11.2460364
44.0,3.400000095,203.0,21.55029678,26.85313988,-79.78153899,40.4583103,293.3195347,0.057236709,0.110932916,-0.184940934,0.97478956,-2.553824964,-1.240827558,0.076842906,0.088488773,-0.243033439,0.055325206,0.5914111089999999,0.203038424,-11.49995876
44.1,3.299999952,190.0,21.66924095,24.96857071,-79.78154516,40.45830932,293.3765397,0.033357091,0.118921235,-0.191307977,0.973728061,-2.038983758,-1.273920239,0.299233782,0.022150157,-0.187434033,-0.033399235,0.5404636979999999,0.047064358,-11.44485928
44.3,3.299999952,183.0,21.63293266,25.19121933,-79.78155004,40.45830804,293.4678082,0.016537387,0.115684286,-0.195889086,0.973638117,-1.537400939,-1.215151226,0.476220251,-0.036502972,-0.163064614,-0.024495047,0.539080721,0.037493037,-10.73961022
44.4,3.299999952,185.0,21.64920807,25.8353138,-79.78155194,40.4583075,293.5528397,0.006518293,0.115459181,-0.196880579,0.97358346,-1.30437225,-1.142084587,0.570648285,0.001855769,-0.204643935,0.015044739,0.700996445,-0.050874257,-10.62169878
44.5,3.299999952,182.0,21.5665741,26.5748291,-79.78155369999999,40.45830656,293.5224823000001,-0.005221548,0.114704192,-0.198096946,0.973433852,-1.07243701,-1.070000412,0.5767692170000001,-0.106193855,-0.298358858,-0.062220484,0.595867966,-0.046546815,-10.67619717
44.7,3.299999952,170.0,21.54278374,26.55892563,-79.78155636999999,40.45830505,293.5345005,-0.028960083,0.106398799,-0.200322971,0.973504663,-0.6616331560000001,-0.875324566,0.656200302,-0.174317628,-0.218654692,0.028779536,0.511068465,-0.251942306,-10.72629261
44.9,3.299999952,164.0,21.63919258,25.62061501,-79.78155715,40.45830459,293.6224675,-0.039278809,0.097865917,-0.200231954,0.97405678,-0.490553725,-0.730551796,0.7648825659999999,-0.278959483,-0.195590258,0.013623944,0.511260985,-0.196373768,-10.63213606
45.0,3.200000048,165.0,21.60037804,26.35217857,-79.78155790999999,40.45830343,293.6085209,-0.056573465,0.082199395,-0.197991729,0.975111306,-0.157334114,-0.4107258170000001,0.819389283,-0.235227197,-0.187359855,0.089333504,0.548359705,-0.105494241,-10.55764604
45.2,3.200000048,168.0,21.72808838,24.49146461,-79.78155776999999,40.45830301,293.7466702,-0.070867054,0.068062633,-0.193615317,0.976144671,0.072211768,-0.042562814,0.934780839,-0.1659263819999999,-0.053323708,-0.054456152,0.388223252,-0.386891256,-10.44015326
45.31,3.200000048,157.0,21.80571556,21.87532997,-79.78155744,40.4583031,293.8396592,-0.078075588,0.059310611,-0.191377893,0.976606905,0.152722675,0.154900746,0.999677092,-0.188630894,-0.110835984,-0.030266609,0.497694348,-0.3862152820000001,-10.34045005
45.4,3.099999905,152.0,21.66423416,24.65049934,-79.78155694,40.45830336,293.9333882,-0.08483737,0.050721265,-0.189460263,0.976900697,0.229514947,0.352566476,1.032086431,-0.096963204,-0.085828081,0.048120286,0.36900868,-0.1727782239999999,-9.975907727
45.6,3.0,148.0,21.87207413,21.23918724,-79.78155516999999,40.45830429,294.14623880000005,-0.093946502,0.035577528,-0.186682656,0.977270722,0.315465195,0.771077428,1.06925212,-0.182234794,-0.088169873,0.040204301,0.209381812,-0.3803924420000001,-9.694040943
45.7,3.0,145.0,21.9071312,21.22328377,-79.781554,40.45830506,294.3083958,-0.098675258,0.027072998,-0.185696691,0.97726512,0.334519052,0.975261134,1.081762808,-0.15806137,-0.0860257969999999,0.09591078,0.318233762,-0.420861679,-9.509920893
45.9,3.0,132.0,21.88835144,21.91508865,-79.78155206,40.45830716,294.4636292,-0.108695105,0.009757064,-0.182109386,0.977203369,0.30932104,1.415838582,1.003684657,-0.142592221,-0.004058543,0.055973038,0.1125293,-0.34939891,-9.138971193
46.1,2.900000095,126.0,21.94344139,21.71629524,-79.78154966,40.45830999,294.6781086000001,-0.110880941,-0.0033896,-0.175718263,0.978170276,0.227582243,1.838366914,0.982575151,-0.129121661,0.033602297,-0.131110981,0.198668105,-0.19753349,-9.181352981
46.2,2.799999952,122.0,21.96973419,19.62497711,-79.78154841,40.45831181,294.7909741,-0.10865771,-0.008681763,-0.172374129,0.978981733,0.177505656,2.04248501,0.981975787,-0.108313255,0.032426357,-0.045587745,0.15469359,-0.371492066,-9.310011606
46.3,2.799999952,117.0,21.90462685,21.41412735,-79.78154735999999,40.45831372,294.8398957,-0.105126895,-0.014513953,-0.168915853,0.979900599,0.105280803,2.258135127,0.939963777,-0.150637791,0.089621708,-0.162209228,0.105904231,-0.420159721,-9.288644711
46.5,2.799999952,104.0,22.08116722,18.95702934,-79.78154511,40.45831816,294.9942517,-0.093465589,-0.027928859,-0.162945479,0.981800914,-0.027412098,2.623418796,0.854163936,-0.096569031,0.142703518,-0.083018467,-0.007707864,-0.325902714,-9.130704399
46.7,2.799999952,98.0,22.06113434,19.6011219,-79.78154309,40.45832342,295.1365799,-0.085479021,-0.045667946,-0.1589754669999999,0.982514441,-0.226643956,2.948503182,0.693507255,-0.144058093,0.071867459,0.07916569,0.04851221,-0.325073981,-9.015102022
46.8,2.900000095,91.0,21.98100281,20.37244415,-79.78154232,40.45832615,295.149466,-0.082083844,-0.054035198,-0.157846346,0.982561469,-0.355640109,3.0972663860000003,0.613862715,-0.143788472,0.1670481409999999,-0.07338728,0.014534459,-0.363517852,-9.113743966
46.9,2.900000095,89.0,22.03483963,19.80786896,-79.78154165,40.45832903,295.1544041,-0.076984465,-0.059675802,-0.1576647159999999,0.982677042,-0.499041705,3.224148961,0.559501038,-0.086430155,0.078455627,-0.010836868,-0.230896569,-0.005530964,-9.284725907
47.1,3.0,78.0,22.15629005,18.34474182,-79.78154049999999,40.45833564,295.2833409,-0.065017767,-0.060896818,-0.159535199,0.983164787,-0.7921992840000001,3.446433626,0.472987091,-0.019724134,0.113517009,-0.051714029,-0.063206108,-0.176961048,-9.21531361
47.31,3.0,73.0,22.03984833,19.52160454,-79.78154011999999,40.45833943,295.4054474,-0.060960326,-0.061126485,-0.161281228,0.983125508,-0.94974599,3.542741773,0.450087746,-0.062088862,0.0055295369999999,0.098319873,-0.257777261,-0.040073326,-8.965167385
47.41,3.0,69.0,22.15754128,18.10618973,-79.78153988,40.45834625,295.3714413,-0.048961125,-0.064521119,-0.163742632,0.983172596,-1.262437621,3.66602223,0.250333123,-0.038759284,0.182488546,0.0519283,-0.273126221,-0.107542931,-9.024378045
47.6,3.099999905,66.0,22.14502144,17.81992531,-79.78153999999999,40.45835047,295.5001339,-0.041233446,-0.06706626,-0.164073437,0.98330152,-1.407652319,3.728549097,0.215755137,0.022484872,0.200019658,0.011729722,-0.172824454,-0.092817523,-8.978358704
47.7,3.200000048,58.0,22.12373543,18.22546577,-79.78154085999999,40.45835864,295.590157,-0.026824849,-0.065535098,-0.163389936,0.984016955,-1.705299593,3.80241605,0.049205535,0.139174312,0.141017243,0.0149355739999999,-0.232184181,0.09133392,-8.954602051
47.81,3.299999952,54.0,22.17882538,17.89944267,-79.78154135999999,40.45836238,295.549664,-0.020238714,-0.0633716429999999,-0.162267521,0.984501719,-1.839820167,3.804031585,-0.078731916,0.053838603,0.113819636,0.043848384,-0.190865946,-0.005879188,-9.039056311
48.0,3.400000095,49.0,22.09994698,19.00473976,-79.78154293,40.45837087,295.5848526000001,-0.0074015669999999,-0.058308393,-0.159052864,0.985518932,-2.063759651,3.819468229,-0.267014782,0.036330078,0.099215351,-0.040764604,-0.299189417,-0.082088585,-8.901058512999999
48.1,3.400000095,46.0,22.17632294,17.81197357,-79.7815438,40.4583747,295.5249505,-0.001441702,-0.054296046,-0.157883555,0.985962808,-2.136705102,3.780277446,-0.412131893,0.215558589,0.1711801889999999,0.0700214879999999,-0.297228261,0.204483819,-8.969477953
48.3,3.400000095,40.0,21.94719696,21.3823204,-79.78154636,40.45838320000001,295.4857335,0.014046754,-0.044573445,-0.154432893,0.986897409,-2.3087522590000003,3.724846201,-0.589624326,0.074694104,0.234035239,-0.092083097,-0.16763536,0.0140462,-9.350464398
48.51,3.5,37.0,22.16380119,19.34666634,-79.78154948999999,40.4583918,295.4424443,0.024113104,-0.041723233,-0.149800077,0.987541258,-2.448086295,3.643168208,-0.692849458,0.004286747,0.030183777,-0.014731636,-0.116410206,-0.01764411,-9.48967257
48.61,3.5,28.0,21.93592834,20.06232643,-79.78155092,40.45839559,295.3714413,0.027451526,-0.039581653,-0.147394359,0.987904191,-2.476871812,3.576254427,-0.7617242209999999,0.127995193,0.067922331,0.007561701,-0.11853143,0.07393309,-9.485779493
48.7,3.5,27.0,21.89961815,21.79581261,-79.78155326,40.45840016,295.355103,0.030467909,-0.033278406,-0.144545868,0.988468945,-2.557591197,3.548061789,-0.737592927,0.210574567,-0.003565481,-0.064508334,-0.033861532,0.148331692,-9.731420438
48.9,3.5,25.0,21.93717957,21.04039383,-79.78155656999999,40.45840755,295.2211136,0.033874836,-0.018349983,-0.141098514,0.989245772,-2.552319102,3.406683188,-0.7973247990000001,0.189673215,-0.015721532,0.063988574,-0.319033661,0.231698643,-9.941261805
49.11,3.5,23.0,22.00729561,20.88931084,-79.78155878999999,40.45841182,295.0767273,0.035680693,-0.012126386,-0.140653014,0.989341497,-2.567426742,3.35198544,-0.8218926259999999,0.190327168,0.02919263,0.003510003,-0.191771223,0.181167773,-10.11656718
49.21,3.400000095,5.0,21.89711571,21.4459343,-79.78156281999999,40.45841932,294.8348755,0.035974186,-0.003797117,-0.139832571,0.989514232,-2.560034855,3.196498984,-0.8874802209999999,0.027590457,-0.065036438,0.019501323,-0.142045862,0.082631372,-9.976285458
49.4,3.400000095,359.0,21.90087128,22.13773918,-79.78156648999999,40.45842607,294.7105698000001,0.032388017,0.000171001,-0.138556555,0.989824831,-2.501074908,3.041277097,-0.8064658640000001,0.061613787,-0.1419108359999999,0.005086169,-0.24567738,0.184127176,-10.21303688
49.5,3.299999952,356.0,21.83075523,21.24713898,-79.78156888999999,40.45842961,294.5262532,0.028289607,0.00269826,-0.137023091,0.990160227,-2.495927111,2.97471435,-0.805611513,0.071957149,-0.095519669,0.059836186,-0.008308473,0.281263535,-10.30150525
49.6,3.200000048,355.0,21.80446243,23.20327568,-79.78157073999999,40.45843281,294.469418,0.025355181,0.006653245,-0.135375425,0.990447581,-2.447808494,2.933530327,-0.74216195,0.070118457,-0.017137617,-0.150284663,-0.102502851,0.020213295,-10.24219694
49.8,3.099999905,348.0,21.71181107,23.69628716,-79.78157483,40.45843932,294.2419877,0.021948548,0.013937312,-0.132378995,0.990858197,-2.369021689,2.851076778,-0.691489653,0.025784178,-0.008127041,-0.070370406,-0.08004301,0.178432354,-10.40877827
49.9,3.099999905,347.0,21.73935699,23.80761147,-79.78157662,40.45844236,294.1953129,0.022984404,0.016960217,-0.13164708,0.990885019,-2.304520368,2.805865218,-0.618215916,0.062233031,0.018907439,-0.038073558,-0.0486675,0.129212429,-10.49344245
50.1,3.0,349.0,21.6454525,24.82543755,-79.78158038,40.45844853,294.0041241,0.02656579,0.027815972,-0.132341191,0.990457714,-2.173279931,2.715468348,-0.575939848,0.1634826959999999,0.018509435,0.016283851,-0.001979898,0.138911937,-10.53427823
50.3,2.900000095,349.0,21.71306419,24.93676376,-79.78158379999999,40.45845437,293.8545022,0.023879211,0.0326451029999999,-0.133291021,0.990251303,-2.048448844,2.622395403,-0.501485361,-0.091780335,-0.132044882,0.019012444,-0.014558345,0.065955825,-10.51805805
50.4,2.799999952,339.0,21.71431541,24.50736809,-79.78158529,40.45845713,293.83374260000005,0.01865595,0.031001085,-0.132800967,0.990482152,-1.965607288,2.592615189,-0.412598868,0.014338295,-0.116930462,0.000895155,-0.130365126,0.144239454,-10.50613909
50.51,2.700000048,342.0,21.6667366,24.00640488,-79.78158692999999,40.45846007,293.7158417,0.014255415,0.029311465,-0.132013619,0.990711927,-1.906820035,2.569030127,-0.345548325,-0.012419831,-0.013505355,-0.048185889,-0.124561782,0.0659082429999999,-10.56408967
50.7,2.700000048,343.0,21.6717453,23.37026405,-79.78158986999999,40.45846561,293.5940365,0.013789307,0.02999088,-0.129923254,0.990974486,-1.779908904,2.54040682,-0.17818408,0.039272964,-0.03897192,-0.050241739,0.060738272,0.102753139,-10.73878811
50.9,2.599999905,344.0,21.75312996,23.13171005,-79.78159223,40.45847082,293.605555,0.004186989,0.028916018,-0.128224388,0.991314709,-1.638077047,2.53285367,-0.003747612,0.023433566,-0.122791037,0.061422177,-0.022184389,-0.005355008,-10.6169602
51.01,2.5,347.0,21.68050957,25.19121933,-79.78159362,40.4584737,293.4893345000001,-0.002236436,0.029041236,-0.127698034,0.991385341,-1.593363799,2.550873119,0.029100696,0.019814622,-0.082050703,-0.123436041,0.046867996,0.034521742,-10.49752848
51.1,2.400000095,353.0,21.72683525,24.09387589,-79.78159461999999,40.45847628,293.5046105,-0.0073338169999999,0.03074071,-0.126649827,0.991444051,-1.52836486,2.564881775,0.123297057,0.045561872,-0.05322786,-0.035183381,0.047915603,0.097730353,-10.42183043
51.3,2.299999952,357.0,21.64795685,24.69820976,-79.78159674999999,40.45848177,293.4166417,-0.011377883,0.033791967,-0.124794953,0.991541743,-1.425076401,2.627471581,0.177621804,-0.033715695,0.056239009,-0.01680772,-0.08494791,-0.051607713,-10.24166017
51.4,2.400000095,358.0,21.73309708,23.91893578,-79.78159755,40.45848438,293.4383664,-0.010257863,0.032080583,-0.124212034,0.99168396,-1.361816799,2.658443095,0.23902204,-0.059685078,0.060095202,-0.049031857,0.075877737,-0.1674440469999999,-10.31623322
51.6,2.400000095,359.0,21.83075523,21.74810219,-79.78159921,40.45848989,293.3538613,-0.015472699,0.026175434,-0.122960061,0.991945744,-1.273365914,2.732707496,0.244593523,-0.158108503,-0.086479843,-0.094484434,-0.025302199,-0.239385246,-10.17421605
51.8,2.400000095,1.0,21.85204124,22.32062912,-79.78160086,40.45849571,293.3469147,-0.024267711,0.02188677,-0.121492371,0.992054284,-1.211499213,2.814694757,0.315678565,0.039234165,-0.003627852,-0.011631483,-0.196687909,-0.022398244,-9.938666811
51.9,2.5,5.0,21.82950401,22.28882217,-79.78160141,40.45849846,293.3701691,-0.026471488,0.021267811,-0.120979354,0.992074132,-1.191270535,2.865354085,0.343310472,-0.053097192,-0.085780419,-0.03888543,-0.052382254,-0.123466096,-9.906405383
52.1,2.5,7.0,21.85329247,21.06424904,-79.78160209999997,40.45850152,293.4115548,-0.030009571,0.018438173,-0.120355107,0.992105901,-1.190834908,2.9185429,0.358536158,-0.13754341,-0.124658972,0.014514958,-0.07982754,-0.003930581,-9.755573532
52.21,2.599999905,14.0,21.83952141,22.04231644,-79.78160306999999,40.45850724,293.4557747,-0.034652758,0.012139073,-0.119265564,0.992183268,-1.139795781,3.02555227,0.394893122,0.041140709,0.019212646,-0.043393888,-0.238838276,0.045749945,-9.658549513
52.4,2.599999905,16.0,21.93217278,20.75412941,-79.78160381,40.45851342,293.5453305000001,-0.035283241,0.010662235,-0.119317241,0.992171764,-1.127244186,3.146981051,0.395644612,0.008761799,0.031873472,-0.035255741,-0.122254124,-0.246277031,-9.607643069
52.51,2.799999952,19.0,22.01230431,19.4261837,-79.78160421,40.45851682,293.6224484,-0.036592983,0.009933936,-0.118837155,0.992189527,-1.137934698,3.213774963,0.408321711,0.021719873,-0.038372591,0.037580833,-0.334252063,-0.119418124,-9.481273044
52.6,2.900000095,20.0,21.99978256,19.7522068,-79.7816046,40.45851992,293.6392827,-0.03653634,0.007609416,-0.118186645,0.992289901,-1.152129308,3.270822613,0.379097369,-0.138007402,-0.035261352,0.016053069,-0.151978746,-0.318906667,-9.422976889
52.8,3.0,21.0,21.92966843,20.34063721,-79.78160538,40.45852675,293.7356057,-0.035442587,0.000198647,-0.116586238,0.992547929,-1.171557925,3.412002987,0.305478322,-0.165453538,-0.057971545,-0.068794727,-0.071918423,-0.121570822,-9.20786952
53.0,3.0,21.0,21.91714859,20.43605804,-79.78160577,40.45853002,293.7390923,-0.037598483,-0.005159664,-0.115677349,0.992561638,-1.17627434,3.460557099,0.261790301,-0.108836852,0.064659171,-0.095689125,-0.212292282,0.0139191,-9.348181645
53.1,3.0,21.0,21.94844818,20.84159851,-79.78160656,40.45853696,293.809771,-0.035029896,-0.01021576,-0.113240309,0.992897451,-1.220169269,3.573131379,0.251698941,-0.069888406,-0.024729559,-0.099926643,-0.192488439,-0.127691477,-9.337212269
53.3,3.099999905,21.0,21.9071312,20.97677994,-79.78160706,40.45854076,293.855555,-0.035408735,-0.011825615,-0.112263061,0.992977083,-1.243553807,3.634342358,0.219632901,0.030243978,0.001398489,0.074909158,-0.123438002,-0.080119462,-9.361767066
53.4,3.200000048,23.0,22.00979996,19.02859497,-79.78160806999999,40.45854776,293.83293389999994,-0.036248803,-0.016046165,-0.113142788,0.9927876,-1.316042875,3.726905679,0.145456011,-0.000680315,0.044063102,0.062975749,-0.31407281,-0.012430756,-9.354022429
53.6,3.200000048,24.0,22.03984833,18.78208923,-79.78160932,40.45855536,293.8699727,-0.032518532,-0.013514721,-0.116306126,0.992588997,-1.426806529,3.805471386,0.096768949,0.051470429,0.077125385,0.055125512,-0.352826145,-0.178570513,-9.295554366
53.7,3.299999952,22.0,21.98225403,20.19750595,-79.78161005999999,40.45855949,293.9326767,-0.025513327,-0.013096861,-0.11695724,0.992722869,-1.4866835930000002,3.837243912,0.057771979,0.053586919,0.205785275,0.072917953,-0.353513339,-0.051115185,-9.091292412
53.8,3.400000095,21.0,22.0436039,18.90136719,-79.78161075,40.45856318,293.906445,-0.019209133,-0.017138161,-0.117074698,0.992789388,-1.55156099,3.853906247,-0.059942138,-0.134385183,0.120846979,0.026393732,-0.278214742,0.000395418,-9.139066502
54.0,3.5,20.0,22.09493828,18.11414146,-79.78161227999999,40.45857108,293.942038,-0.011239674,-0.019488206,-0.118012853,0.992757261,-1.623091647,3.865009696,-0.185709653,0.114737101,0.04234666,0.017488783,-0.338704389,0.097297449,-9.074355367
54.2,3.599999905,22.0,22.04485703,19.46594238,-79.78161309,40.4585748,293.9033265,-0.008799909,-0.015692923,-0.118062526,0.992843211,-1.6778237130000002,3.846561068,-0.28905959,-0.024965361,-0.017014446,0.031457692,-0.240036297,-0.037812349,-9.089471589
54.3,3.700000048,20.0,21.94844818,20.91316605,-79.78161501,40.45858261,293.8910775,-0.003673271,-0.017537972,-0.116549872,0.993023217,-1.741562749,3.814189265,-0.423886475,0.020985924,0.058762971,-0.017413193,-0.318331739,0.154315659,-9.163112007
54.5,3.700000048,20.0,21.97724533,20.92906952,-79.78161709999999,40.45859054,293.8674492,-0.003155085,-0.013523674,-0.115276948,0.993236363,-1.789192016,3.802878388,-0.455342193,0.00183916,0.009070772,-0.030921606,-0.290884543,-0.065090688,-9.428324168
54.6,3.900000095,21.0,21.95471001,19.84762764,-79.78161811999999,40.45859423,293.8140435,-0.001804984,-0.010527731,-0.114656486,0.993347824,-1.80250149,3.777100099,-0.478731376,0.018847477,0.02913304,-0.060849607,-0.231092305,0.04429931,-9.653913256
54.8,3.900000095,15.0,21.87332535,21.39027214,-79.78161951,40.45859859,293.8492512,-0.000863415,-0.008623221,-0.113585696,0.993490398,-1.827726408,3.792281651,-0.445364067,-0.018284073,-0.02717112,0.028478738,-0.210821507,-0.049196773,-9.642485458
54.9,3.900000095,13.0,21.8445282,21.95484734,-79.78162169,40.45860594,293.7492794,-0.00132472,-0.011884157,-0.109673031,0.993895888,-1.832192464,3.741927039,-0.465524239,0.00229497,0.059238385,-0.115188397,-0.214075756,0.04315231,-9.811248965
55.1,3.900000095,13.0,21.87708282,22.25701523,-79.78162429999999,40.4586139,293.6923623,0.001291471,-0.015017536,-0.105308697,0.99432534,-1.860704896,3.733230092,-0.409371889,0.040062565,0.000453232,0.070985764,-0.136942357,0.13104058,-9.954871784
55.21,3.900000095,11.0,21.83075523,21.97075081,-79.78162569999999,40.45861782,293.6291184,0.001855088,-0.011254773,-0.103533462,0.994560659,-1.865201211,3.723390416,-0.411206773,0.103059486,-0.068712398,0.017184818,-0.210550616,0.142447684,-9.959859459
55.3,3.799999952,8.0,21.82825279,22.4478569,-79.78162692,40.45862144,293.58592460000006,0.001834834,-0.005222683,-0.102096982,0.994759083,-1.853805273,3.701352574,-0.401992438,0.1400239469999999,-0.011020355,0.036779139,-0.096336313,0.104766728,-10.07231662
55.5,3.700000048,6.0,21.71681976,23.6644783,-79.78162977999999,40.45862895,293.4799199,0.001205265,0.002170618,-0.10104274,0.994879067,-1.846453245,3.668626444,-0.371034768,0.039275955,-0.007733531,0.074240237,-0.29171514,-0.134984947,-10.26613077
55.6,3.700000048,6.0,21.81948853,22.04231644,-79.78163104,40.45863251,293.446362,0.002856386,0.002682667,-0.100659862,0.994913161,-1.840745219,3.639966591,-0.321575081,-0.060965445,0.066610403,-0.072250217,-0.277916972,0.0471006509999999,-10.36775538
55.8,3.599999905,0.0,21.85078812,21.85147476,-79.781634,40.45863996,293.3415894,0.003677557,0.003747611,-0.099818848,0.994991839,-1.832150626,3.60244014,-0.297129666,-0.015205742,-0.120253131,0.057896201,-0.254157542,0.072604292,-10.25964854
56.0,3.599999905,0.0,21.86330986,20.27702332,-79.78163688,40.45864725,293.2341656000001,-0.001794262,0.011103726,-0.100011572,0.994922757,-1.787645079,3.569284567,-0.264844408,0.11248675,-0.013497176,-0.090779178,-0.263451746,0.024224521,-10.17437626
56.1,3.5,0.0,21.870821,21.42207909,-79.7816381,40.45865071,293.2116856,-0.003096783,0.017249823,-0.100847632,0.994747519,-1.758999719,3.550169722,-0.231720904,0.066131294,0.004221833,-0.05645733,-0.339067391,-0.074989467,-10.04579131
56.2,3.5,0.0,21.87708282,21.35846519,-79.78163986,40.45865444,293.1589779,-0.003113501,0.019173233,-0.101336241,0.994662642,-1.764715812,3.5357374310000003,-0.265059435,-0.078970097,-0.034518745,0.018258106,-0.280994088,-0.146850482,-9.872138361
56.4,3.5,353.0,21.84327698,22.69436264,-79.78164221,40.45866127,293.1136841,-0.004506647,0.012672427,-0.100392923,0.994857013,-1.69906791,3.498441207,-0.213092772,-0.016370784,0.020129904,0.104864568,-0.330123307,0.073346354,-10.07303349
56.6,3.5,358.0,21.92465973,20.91316605,-79.78164484999999,40.45866833,293.051907,-0.006022541,0.011430264,-0.099285439,0.99497509,-1.667289599,3.482284426,-0.153835675,-0.061802894,-0.057653494,0.0732134659999999,-0.163398578,0.100680328,-10.20374916
56.7,3.5,357.0,21.83451271,22.08207703,-79.78164634999999,40.45867195,293.0197491,-0.008810149,0.010108058,-0.099272713,0.994969964,-1.65788388,3.480733552,-0.150033358,-0.019624932,-0.078975186,0.033227962,-0.191527632,0.083226783,-10.03284441
56.8,3.599999905,358.0,21.8758297,21.01653862,-79.78164745,40.45867531,293.0043454,-0.010354561,0.008540954,-0.099661298,0.994930923,-1.6422928980000002,3.468870177,-0.105051143,-0.03774754,-0.011900198,0.024353515,-0.280748761,-0.041730454,-10.06598759
57.01,3.599999905,1.0,21.81447983,22.89315796,-79.78165003999999,40.45868232,292.9617791,-0.013053416,0.005413301,-0.099231549,0.994964063,-1.648900725,3.478452552,-0.075664834,-0.052805405,0.0079950819999999,-0.069717646,-0.29736081,0.019509288,-9.956758096
57.1,3.599999905,2.0,21.83952141,21.51749992,-79.78165113,40.45868568,292.9492268,-0.014548941,0.005297198,-0.098537788,0.995012879,-1.635070358,3.478630897,-0.026504376,0.021373261,0.017774465,-0.018388806,-0.273086313,0.099841956,-10.12940182
57.3,3.599999905,4.0,21.76314545,22.47171402,-79.78165353,40.45869267,292.9297509,-0.014674035,0.008731488,-0.098176651,0.995022476,-1.6225981880000002,3.498595855,0.009190708,0.033104729,-0.014732587,-0.091927752,-0.196201037,0.005868174,-9.974995562
57.5,3.700000048,4.0,21.89711571,21.66858482,-79.78165459,40.45869604,292.9228634,-0.014677318,0.01031304,-0.097784109,0.99504602,-1.608397459,3.501539329,0.029813272,0.012345194,0.035487283,-0.128658503,-0.286138559,0.035153182,-9.883001318
57.6,3.700000048,4.0,21.78067398,21.39822388,-79.7816569,40.45870299,292.9135174,-0.014045765,0.009973701,-0.097903572,0.995046854,-1.580090248,3.50619974,0.018525537,-0.028645013,0.020868815,-0.012682989,-0.19166135,0.065108943,-9.898192384
57.8,3.700000048,4.0,21.85078812,21.82761955,-79.78165917,40.45871001,292.9118008,-0.013826753,0.004116186,-0.097906806,0.995091081,-1.569674586,3.515402862,0.016476805,-0.078666426,0.009829844,0.021469677,-0.398272825,0.082677089,-9.780981438
57.9,3.700000048,4.0,21.98851395,19.12401581,-79.78166017,40.45871339,292.9052758,-0.012652218,0.001935863,-0.098069973,0.99509722,-1.5567319469999998,3.510574388,0.025063839,0.017258957,0.05589984,-0.10430716,-0.244825624,0.143949989,-9.825931324
58.0,3.700000048,4.0,21.86831856,21.28689957,-79.78166152,40.45871715,292.9208073000001,-0.011735301,0.00133421,-0.098409988,0.995075881,-1.5701338319999998,3.528199085,0.0070817819999999,0.012042428,0.017622126,0.026713304,-0.166587503,0.079702675,-9.697875547
58.2,3.599999905,5.0,21.93592834,20.24521637,-79.78166370999999,40.45872422,292.9305272,-0.013967775,0.0017156329999999,-0.097237863,0.995161772,-1.57648828,3.5388961610000003,-0.022454494,-0.019579681,-0.059527211,0.050114535,-0.161764573,0.09750276,-9.647527512
58.4,3.599999905,6.0,22.00604248,20.0782299,-79.78166471,40.45872762,292.9191231000001,-0.014422129,0.000884648,-0.095516764,0.995322943,-1.565571919,3.541513707,-0.022856386,-0.017279273,0.00730919,0.004568014,-0.229154848,-0.019268793,-9.575927771
58.5,3.599999905,5.0,21.870821,21.5334034,-79.78166689,40.45873469,292.92668389999994,-0.015551576,0.000170384,-0.091353178,0.995697081,-1.5386368069999998,3.566934598,-0.05506299,0.011768823,-0.009534656,0.039586294,-0.250175936,0.101238326,-9.447861469
58.7,3.599999905,5.0,21.80821991,22.28882217,-79.78166908,40.45874183,292.9419465,-0.01331348,-0.000631086,-0.086897388,0.996128082,-1.515771548,3.599536059,-0.028423523,0.052411515,0.048806708,-0.053585459,-0.409867452,-0.007654462,-9.778082389
58.8,3.599999905,3.0,21.82199097,22.32062912,-79.78167008999999,40.45874526,292.9288640000001,-0.011694643,-0.001625115,-0.085013226,0.996309936,-1.506829694,3.611164527,-0.017198717,-0.007180523,0.02316886,-0.070340134,-0.411608752,0.015114915,-9.922811501
59.0,3.599999905,3.0,21.78818703,23.13171005,-79.78167110999999,40.4587487,292.9185471,-0.011447117,-0.001189882,-0.083726622,0.996422291,-1.4918685,3.612636437,-0.001202853,0.070066303,-0.024163345,0.092703491,-0.27905146,-0.003465763,-9.985212986
59.1,3.5,2.0,21.86456108,21.98665428,-79.78167329,40.45875577,292.9381413000001,-0.015257928,0.000196261,-0.082770593,0.996451795,-1.491129549,3.630985681,0.054459179,-0.010875736,-0.022890812,0.030974863,-0.267923003,-0.005837305,-9.973239058
59.3,3.5,1.0,21.84828568,21.15966988,-79.78167556999999,40.45876293,292.9582219,-0.012087559,9.06e-06,-0.084318899,0.996365547,-1.506810855,3.645111301,0.114884499,0.026204398,0.014080782,-0.0053871,-0.362687073,-0.012317002,-10.00538003
59.4,3.599999905,0.0,21.96597672,20.76208115,-79.78167660999999,40.45876639,292.9596028,-0.011040946,-0.001032024,-0.085359856,0.996288478,-1.5191352830000002,3.642257052,0.108900693,-0.029182142,0.020411411,-0.0314370879999999,-0.365425251,-0.067524935,-9.898504626
59.51,3.599999905,358.0,21.82199097,21.97870255,-79.78167785,40.45877013,292.9841008,-0.01066385,-0.000953256,-0.086381838,0.996204555,-1.540415819,3.644886351,0.100612189,-0.013909514,0.035812769,-0.041827478,-0.326342753,0.165451864,-9.760657686
59.7,3.5,357.0,21.84077263,20.67461205,-79.78168027,40.45877734,293.0096249,-0.008110171,0.001483455,-0.087462038,0.996133804,-1.569507829,3.638005602,0.117817763,0.002853038,0.029138619,-0.005359034,-0.280791847,-0.052806232,-9.940854839
59.8,3.599999905,357.0,21.86330986,21.75605392,-79.78168135,40.45878081,293.0146527,-0.008776078,0.001648534,-0.08771041,0.996106029,-1.577759666,3.633219232,0.105743811,-0.077689342,-0.086224973,-0.050020389,-0.258395403,-0.014572326,-9.758295411
60.0,3.599999905,358.0,21.72433281,22.95677185,-79.78168378,40.458788,293.0468773,-0.011529186,-0.000574689,-0.087305188,0.99611479,-1.5920880240000002,3.62783653,0.1308394819999999,-0.054612108,0.002642408,0.073629707,-0.236993717,0.09490666,-9.911077309
60.2,3.599999905,359.0,21.77942276,22.36833954,-79.78168597999999,40.45879493,293.0609765000001,-0.008888377,4.9000000000000005e-06,-0.085780129,0.996274531,-1.592474841,3.622360895,0.154250009,-0.073627383,-0.091585182,0.008627028,-0.210416386,-0.090395688,-9.849641783
60.3,3.599999905,0.0,21.81573105,21.55725861,-79.78168717999999,40.45879861,293.0941815,-0.008755418,-6.879999999999999e-05,-0.085167751,0.996328175,-1.586020683,3.625741467,0.147360052,-0.032704353,-0.009171026,0.131059811,-0.263233353,-0.043111745,-9.787606333
60.41,3.599999905,0.0,21.8495369,21.81966782,-79.78168828999999,40.45880207,293.1020474,-0.008628272,0.000363673,-0.085171349,0.99632895,-1.5770746,3.621849066,0.1412434,0.014269567,-0.0076402269999999,0.034948155,-0.320240051,-0.012591926,-9.799386134
60.6,3.700000048,358.0,21.86706543,21.04834557,-79.78169059999999,40.45880916,293.1420978999999,-0.008520884,0.0046277459999999,-0.087239414,0.996140242,-1.5877501180000002,3.609839105,0.146837655,-0.023031749,0.020961674,-0.053995941,-0.335895898,-0.124397302,-9.824481214
60.8,3.700000048,358.0,21.76189423,21.82761955,-79.78169301,40.45881638,293.1865105,-0.010007315,0.00354176,-0.089034617,0.995972037,-1.6048357290000002,3.604714101,0.14692357,0.044912599,0.038283482,0.009027796,-0.252907371,0.099336748,-9.797106305
60.9,3.700000048,359.0,21.933424,20.80979156,-79.78169412999999,40.45881984,293.1956639,-0.010236841,0.003038323,-0.08933869,0.995944083,-1.607455488,3.597574051,0.156153559,0.003522706,0.028805159,0.07548847,-0.179950857,0.037479718,-9.813642815
61.0,3.700000048,359.0,21.89586258,21.35051346,-79.78169534,40.4588234,293.2313179,-0.01107901,0.002123066,-0.088831991,0.995982766,-1.6114144519999998,3.593784983,0.150947914,0.026101923,0.027075931,0.061765514,-0.275275584,0.061275965,-9.747583897
61.2,3.700000048,3.0,21.88709831,21.1437664,-79.78169756999999,40.45883029,293.2470231000001,-0.011040706,0.0012885,-0.0875754359999999,0.996095955,-1.596848591,3.590051662,0.160364142,0.051588487,0.009294496,0.031107372,-0.327001479,-0.022840398,-9.799700714
61.3,3.700000048,2.0,21.95596123,20.18160248,-79.78169870000002,40.45883386,293.2769341,-0.009959448,0.00059864,-0.086196415,0.996228218,-1.594030879,3.597482143,0.162095418,0.02332646,-0.038368706,0.088501103,-0.352399554,-0.132665174,-9.701285643
61.5,3.700000048,3.0,21.96472549,19.60907364,-79.78170102,40.45884088,293.3111691000001,-0.010517456,-0.002150311,-0.081893809,0.996583223,-1.596826926,3.620259138,0.136179858,-0.02325171,-0.045648761,-0.164121881,-0.132475148,0.07295401,-9.658081736
61.7,3.700000048,4.0,21.94844818,20.49172211,-79.78170335,40.45884791,293.3434014,-0.010989779,0.002480423,-0.076968014,0.996969938,-1.5710316080000002,3.630889559,0.110686367,0.054266784,0.028267127,0.08321099,-0.301978173,-0.074966659,-9.612719037
61.81,3.700000048,7.0,21.85329247,22.19340134,-79.78170451,40.45885137,293.3456368,-0.008855374,0.004006423,-0.074776098,0.997153044,-1.56004934,3.640435662,0.094635774,0.041496988,0.108665369,-0.066533744,-0.265411349,0.007621964,-9.639825559
61.9,3.700000048,2.0,22.01605988,18.75823402,-79.78170568,40.45885482,293.34690710000007,-0.007123852,0.00397754,-0.073524833,0.997260094,-1.552892928,3.642020456,0.065671217,-0.030612905,0.067859106,-0.113725908,-0.353663905,0.024173331,-9.444276541
62.1,3.700000048,3.0,21.92340851,19.76015854,-79.78170804999999,40.45886191,293.3700642,-0.010112316,0.007020865,-0.075937964,0.997036636,-1.542946058,3.639386091,0.0105759639999999,0.003643347,-0.051427126,0.06750641,-0.3160939,0.134192923,-9.525403735
62.3,3.700000048,4.0,21.92215538,20.7302742,-79.78171042,40.4588689,293.3870625,-0.010410834,0.007457158,-0.081230044,0.996613145,-1.556578662,3.609109902,0.023103121,-0.016919397,0.063561335,0.081159249,-0.186814374,0.045079369,-9.768111717
62.41,3.799999952,4.0,21.84327698,21.08810425,-79.78171155999999,40.45887233,293.3829636000001,-0.008598155,0.005764809,-0.083965935,0.99641484,-1.563200179,3.590843377,0.014850971,0.031519543,0.072631374,0.153554156,-0.345581299,0.128382746,-9.725025339
62.5,3.799999952,5.0,21.95345688,20.12594032,-79.78171275999999,40.45887585,293.3956398,-0.007214531,0.005564965,-0.086387545,0.996219993,-1.578129893,3.579651085,0.019630014,0.082091205,0.024332389,0.046789005,-0.234042956,-0.096376668,-9.727425621
62.7,3.700000048,5.0,21.87457848,21.35051346,-79.78171513999999,40.45888279,293.4000573,-0.007826674,0.002651096,-0.086826816,0.996189177,-1.61132677,3.56729407,-0.014936446,0.016692704,-0.046224162,0.049703978,-0.380769623,-0.061870654,-9.60943641
62.8,3.700000048,6.0,21.91839981,20.7302742,-79.78171628,40.45888621,293.3944954,-0.009224987,0.002124864,-0.084913902,0.996343315,-1.608241746,3.565317243,-0.003472657,0.047581777,-0.076933712,-0.067405351,-0.270177324,-0.065370254,-9.756033123
63.0,3.700000048,6.0,21.84202385,20.92111778,-79.78171872,40.45889320000001,293.3973450000001,-0.013081765,0.003120971,-0.079369657,0.996754587,-1.601392655,3.5914565210000005,0.043488619,-0.100373283,-0.038908787,-0.045542721,-0.257787128,-0.029270933,-9.863735912
63.2,3.700000048,6.0,21.84703255,22.45580864,-79.78172103,40.45890005,293.39153710000005,-0.010881566,0.002926291,-0.074704386,0.997142136,-1.539110688,3.603752542,0.060606948,0.054796286,0.121065833,-0.093674071,-0.246334169,-0.083198661,-9.765117357
63.3,3.700000048,5.0,21.75438118,22.24906349,-79.78172226999999,40.4589036,293.39021339999994,-0.008537583,0.004824376,-0.073997453,0.997210205,-1.526114372,3.611472162,0.060664231,0.082642511,0.072071955,0.026435832,-0.331967373,0.035044935,-9.934870799
63.4,3.599999905,4.0,22.00979996,19.3387146,-79.78172341,40.45890702,293.39059489999994,-0.006571711,0.006230384,-0.074172884,0.997204363,-1.513811859,3.609756767,0.065847503,-0.006328662,0.002362039,0.000993291,-0.210946454,0.124978643,-9.788325541
63.61,3.599999905,2.0,21.82324409,21.83557129,-79.78172577,40.45891395,293.3912644,-0.009192511,0.004986318,-0.074543953,0.997162938,-1.4999650409999998,3.598133858,0.04792123,0.032360125,0.013429432,0.002228862,-0.426747998,-0.001502753,-9.819023423
63.8,3.700000048,0.0,21.94970131,20.53148079,-79.78172814999999,40.45892095,293.3918251,-0.009774701,0.003052889,-0.074149452,0.997194648,-1.504829636,3.604245349,0.066687656,-0.029002627,-0.029877674,-0.067978494,-0.364428629,-0.059761627,-9.709774631
63.9,3.700000048,358.0,21.89586258,21.17557335,-79.78172927,40.45892436,293.3915295,-0.010708855,0.001392714,-0.073807448,0.997214079,-1.509363702,3.596389402,0.056822259,-0.101633571,-0.018843472,-0.147476837,-0.233649493,0.088620693,-9.709892744
64.0,3.700000048,358.0,21.89085388,20.77003288,-79.78173048,40.45892792,293.3899693,-0.009925321,-0.000531893,-0.073281392,0.997261763,-1.511400051,3.598549145,0.058543092,-0.078166537,-0.022944629,0.00798546,-0.25246523,-0.040366884,-9.7914883
64.2,3.700000048,4.0,21.86581421,20.79388809,-79.78173283999999,40.4589349,293.3914418,-0.008669345,-0.001355592,-0.07362552,0.997247398,-1.502074652,3.599094454,0.067367377,0.055631101,0.063341983,0.004614226,-0.317763646,0.012852217,-9.892492518
64.31,3.700000048,0.0,21.88709831,21.20738029,-79.78173396999999,40.4589383,293.3914361,-0.00923283,0.000406421,-0.074777395,0.997157454,-1.506902655,3.592297674,0.068420877,0.055332731,0.020492686,-0.094297104,-0.226181466,-0.050739059,-9.846089015
64.5,3.799999952,0.0,21.88334274,21.1437664,-79.78173636,40.45894527,293.3904881,-0.014137297,0.003804317,-0.076674707,0.996948719,-1.525400762,3.590896382,0.052478453,0.000344007,-0.033018336,0.024621945,-0.306125183,0.048320906,-9.583739067
64.7,3.799999952,359.0,21.81573105,22.67050743,-79.78173749,40.45894868,293.3867917,-0.014947772,0.003814112,-0.076884732,0.996920705,-1.530390581,3.589655754,0.052549463,-0.040900156,-0.010951636,-0.049614731,-0.36562179,0.117229484,-9.808979076
64.8,3.799999952,359.0,21.87708282,20.555336,-79.78173989,40.45895564,293.3845219,-0.012634706,0.000380637,-0.076344125,0.99700141,-1.520455329,3.595435905,0.079464439,0.050754044,0.002964795,0.118268371,-0.43328968,0.120698993,-9.902559085
65.0,3.799999952,359.0,21.90337563,21.67653656,-79.78174224,40.45896261,293.3814206,-0.011759289,0.000654338,-0.075305492,0.997090995,-1.518206774,3.609842635,0.048428128,0.039887976,-0.033469029,-0.015887002,-0.368266705,0.089639981,-9.628473775
65.1,3.799999952,358.0,21.94344139,20.7302742,-79.78174337,40.45896603,293.3767685,-0.012024044,0.000388603,-0.07460428,0.997140706,-1.511157874,3.604608426,0.032169343,0.050723281,0.042008497,-0.014020971,-0.327506386,0.119745312,-9.667129133
65.2,3.799999952,358.0,21.88208961,20.83364677,-79.78174458999999,40.45896961,293.3795285,-0.012225428,0.000210826,-0.0737479779999999,0.997201979,-1.517677173,3.619178578,0.033093171,0.020420162,0.0160057989999999,-0.13797307,-0.11394767,0.098745165,-9.732040243
65.4,3.799999952,0.0,21.89461136,20.20545769,-79.78174686,40.45897645,293.365828,-0.011771022,0.000891862,-0.072455831,0.997301817,-1.510108269,3.619842818,0.00448537,-0.044116277,-0.018674156,-0.073239304,-0.255830559,-0.017252571,-9.637234658
65.6,3.799999952,0.0,21.86330986,20.90521431,-79.78174809999997,40.45898007,293.3725628,-0.012881329,0.002045649,-0.071643241,0.99734509,-1.508285486,3.632103049,-0.000955352,-0.060419958,-0.050686575,0.001183492,-0.302939474,-0.051608645,-9.685622122
65.7,3.799999952,0.0,21.84327698,21.18352509,-79.78175049,40.45898714,293.36824269999994,-0.014252336,0.000921774,-0.069617838,0.997471571,-1.495075312,3.644699879,0.016737915,-0.020065488,-0.005254728,-0.054639086,-0.173590804,0.038815033,-9.840233613
65.9,3.799999952,1.0,21.91714859,20.49172211,-79.78175163,40.45899058,293.36051789999993,-0.015494009,-0.000588904,-0.069025815,0.997494459,-1.4874295380000002,3.644652332,0.026497365,-0.010300281,-0.01151674,0.026519939,-0.342907806,0.091812651,-9.798308492
66.0,3.799999952,0.0,21.98475838,19.01269150000001,-79.78175412,40.45899768,293.3513264,-0.01799942,0.001990057,-0.069889911,0.997390389,-1.490625681,3.652154627,0.049877743,0.053995695,-0.002566581,0.140953571,-0.29873792,0.07754708,-9.799145814
66.2,3.900000095,0.0,21.86581421,21.65267944,-79.78175526999999,40.45900113,293.3423581,-0.018084306,0.003632445,-0.070789091,0.997320771,-1.490246942,3.653944579,0.028222233,0.081593312,0.041907102,0.047017645,-0.528492912,0.077422992,-9.53446575
66.3,3.900000095,359.0,21.89586258,21.55725861,-79.78175766,40.45900829,293.326363,-0.017137235,0.003782875,-0.0709742979999999,0.997323751,-1.49417736,3.66913499,-0.000203553,0.021594312,0.066657461,-0.012909203,-0.403053033,0.061328864,-9.608301466
66.5,3.900000095,359.0,21.7293396,22.9885788,-79.78176008,40.45901539,293.3065915,-0.014870513,-0.001853956,-0.069284663,0.997484446,-1.4942084780000002,3.679954945,-0.005680784,-0.0148099539999999,0.019296896,-0.06445501,-0.279976088,-0.090294294,-9.866493459
66.6,3.900000095,359.0,21.83200836,22.12183571,-79.78176121999999,40.45901886,293.2952178999999,-0.014643949,-0.00362665,-0.068156019,0.99756068,-1.49486658,3.681187578,0.014412225,-0.012498666,0.025758045,-0.103140108,-0.365272821,0.0868150819999999,-9.984030679
66.7,3.900000095,1.0,21.81948853,21.49364471,-79.78176259,40.45902257,293.2891526,-0.01357425,-0.003620225,-0.067112759,0.997646511,-1.497796172,3.692685536,0.039536658,0.083695054,0.028377196,-0.020222936,-0.362483589,0.07859671,-9.949982343
66.9,4.0,0.0,21.84327698,22.39219475,-79.78176492,40.45902953,293.2760186000001,-0.013648966,0.0040507,-0.0663322809999999,0.997696102,-1.485418569,3.6931946,0.038770684,0.112449899,-0.000944376,-0.067666374,-0.316452444,0.039670695,-9.855059813
67.0,4.0,0.0,21.78818703,21.92304039,-79.78176629,40.45903320000001,293.2631001000001,-0.012639704,0.007341905,-0.066850953,0.997655928,-1.487268908,3.687717058,0.035592874,0.064670965,0.025089756,0.029953303,-0.43756235,0.106263999,-9.893630387
67.2,4.0,355.0,21.90587997,20.2293129,-79.78176879,40.45904044,293.2497982,-0.010050326,0.004395913,-0.0690994259999999,0.997549534,-1.4853747469999998,3.691054354,0.036728719,-0.025104947,0.085801624,-0.090761155,-0.303954989,-0.073693592,-9.990593594
67.4,3.900000095,354.0,21.85078812,22.0343647,-79.78177108999999,40.45904737,293.244925,-0.012004785,-0.001978857,-0.070211515,0.997457981,-1.5034803840000002,3.668294218,0.066930762,-0.097923167,-0.095627032,0.05822926,-0.272476047,0.056911416,-9.945341992
67.5,3.900000095,354.0,21.82073975,21.34256172,-79.78177244,40.45905106,293.2400994,-0.01270361,-0.001738303,-0.070086002,0.997458577,-1.505444824,3.66778015,0.092018833,0.016397428,-0.0348819229999999,0.086932823,-0.231841717,0.169379713,-9.980743375
67.6,3.900000095,354.0,21.77691841,22.65460396,-79.7817736,40.45905452,293.2406582,-0.01343175,-0.000722203,-0.069653928,0.997480571,-1.503852905,3.672721926,0.114246778,0.031525217,-0.020104103,-0.040427085,-0.377418073,0.020218639,-9.950004562
67.8,3.799999952,359.0,21.9284153,20.72232246,-79.78177611,40.45906165,293.2352719,-0.011665352,-5.350000000000001e-05,-0.068003118,0.997616947,-1.507363614,3.67000165,0.187973998,-0.063003905,-0.002724525,-0.049374208,-0.224680668,-0.014032226,-10.31735004
68.0,3.799999952,1.0,21.78192711,21.78786087,-79.78177869,40.45906878,293.2365574,-0.011800636,-0.003459356,-0.066011205,0.997743189,-1.500782626,3.674172613,0.188763982,-0.036151517,-5.3e-06,0.035235118,-0.295226814,0.091914448,-9.977625639
68.11,3.799999952,0.0,21.88083839,21.18352509,-79.78177987,40.45907224,293.246962,-0.012178915,-0.005076511,-0.065059759,0.997794151,-1.493132845,3.671511378,0.203073841,-0.007007834,0.03338109,-0.008130222,-0.375308507,-0.0858514059999999,-9.896551656
68.2,3.700000048,0.0,21.84077263,20.87340736,-79.78178134,40.45907602,293.2433705,-0.011546518,-0.004373635,-0.064361833,0.997850299,-1.507206352,3.688932213,0.191918037,0.037504282,0.075691059,0.016080426,-0.325025376,0.104832509,-9.791226929
68.4,3.599999905,0.0,21.85454559,21.27894783,-79.78178374,40.45908297,293.260077,-0.008334401,-0.000405141,-0.063963152,0.997917414,-1.508532624,3.686123725,0.155829743,-0.005736581,0.034853715,-0.118462794,-0.0968958,0.005968833,-9.800308825
68.5,3.599999905,359.0,21.79319382,22.11388397,-79.78178519,40.45908661,293.2679753,-0.009122319,-0.000730268,-0.0637814179999999,0.997922003,-1.518319871,3.683166327,0.134945789,-0.037736584,-0.03014951,-0.002060163,-0.186613668,0.08342557,-9.741771764
68.7,3.5,359.0,21.84077263,22.02641296,-79.78178788999999,40.45909373,293.2889065,-0.010117748,-0.000150145,-0.063585274,0.997925162,-1.515958059,3.68422527,0.160737228,0.016060848,-0.010694534,0.043913696,-0.129976944,0.009866135,-9.853768748
68.9,3.5,0.0,21.80947113,21.99460602,-79.78178912,40.45909719,293.29851569999994,-0.008514268,-0.00019112,-0.063506745,0.99794507,-1.5131390530000002,3.657762892,0.181146945,0.040783551,0.175541833,0.059017625,-0.644928371,0.099134087,-10.08637333
69.0,3.400000095,358.0,21.86581421,20.96087646,-79.78179182999999,40.45910425,293.3279652,0.046623714,-0.001597857,-0.063420273,0.996895969,-1.5105267130000002,3.518701456,0.091421791,0.083021663,0.804609954,-0.101233415,-0.434445821,0.079593679,-10.09902319
69.2,3.299999952,0.0,21.76314545,22.66255569,-79.78179449999999,40.45911102,293.3501706,0.117456093,-0.005866813,-0.063411973,0.991034091,-1.50331686,3.1857510710000003,-0.431148548,0.026420254,0.478946388,0.042150512,-0.061130447,-0.018091221,-9.860666124
69.31,3.200000048,0.0,21.80321121,21.27099609,-79.78179578999999,40.45911395,293.3620018000001,0.138958946,-0.005762998,-0.062944904,0.988278985,-1.494516039,2.906551377,-0.585660166,0.042363402,0.307171345,-0.010662989,-0.057752072,0.018437413,-9.969107416
69.4,3.099999905,359.0,21.87833405,20.04642296,-79.78179711,40.45911664,293.372704,0.152309299,-0.004926854,-0.062116001,0.986366689,-1.4780929740000002,2.594234658,-0.65550967,0.039423909,0.224447936,0.061392825,0.021940096,0.063905599,-10.05280797
69.6,2.799999952,282.0,21.72307968,22.63074875,-79.78180003,40.45912155,293.38977860000006,0.169100136,-0.004866033,-0.060251471,0.983743489,-1.4366115190000002,1.973373017,-0.666456884,0.120926626,0.214825869,0.052019287,-0.164007455,0.147621821,-9.881957005
69.81,2.599999905,222.0,21.5615654,25.85121727,-79.78180153999999,40.45912372,293.4020752,0.179132953,-0.002874923,-0.059176415,0.982039392,-1.41145961,1.674040651,-0.6249299220000001,0.102854423,0.211154923,0.015740534,0.207710495,0.102469229,-10.08787255
69.9,2.299999952,230.0,21.48018265,26.05796242,-79.78180436999999,40.45912659,293.3928093,0.195519567,0.007271947,-0.058229674,0.978942633,-1.348672907,0.969912065,-0.483141639,0.077630319,0.097802892,-0.00308759,0.315953019,-0.018130763,-10.38964501
70.1,2.099999905,234.0,21.59161377,25.01628113,-79.78180728999999,40.45912851,293.4025731000001,0.168537423,0.0116332289999999,-0.060789268,0.983750343,-1.270672539,0.454812583,-0.267701338,-0.253756821,-1.186698794,0.103269018,1.09376218,-0.137108619,-10.12075495
70.2,1.899999976,243.0,21.89335823,19.67268944,-79.78180848,40.45912937,293.4369359,0.085074663,0.001671701,-0.081786849,0.993010879,-1.212021714,0.310991139,-0.125450119,-0.471716225,-1.324183345,0.620112717,0.268879351,0.124413062,-10.34701647
70.4,1.7999999519999998,32.0,21.79319382,22.19340134,-79.78180981999999,40.45912972,293.4425435,0.031913795,-0.003999075,-0.12244112,0.991954505,-1.154551611,0.097171742,0.039099926,0.03006557,-0.367262334,0.985288739,-0.578204112,0.602263066,-9.873027138
70.5,1.7000000480000002,56.0,21.76815414,23.402071,-79.78181212,40.45913046,293.4863133,0.044500764,0.035991233,-0.237378463,0.969729781,-1.023217174,-0.210232041,0.010789591,0.394067198,0.385697633,1.322082043,-0.22437316,-0.024203197,-9.566758168
70.7,1.600000024,69.0,21.74436378,22.47966576,-79.78181416,40.45913056,293.5285954,0.050732356,0.048594546,-0.372601122,0.925328732,-0.7565799990000001,-0.489308666,0.0151292,-0.118847542,0.04304095,1.525759459,0.196969763,-0.377906936,-9.866358973
70.8,1.5,109.0,21.78317833,21.8594265,-79.78181518,40.45913056,293.5360074,0.040858123,0.045226894,-0.442335039,0.8947764640000001,-0.588623637,-0.612554018,0.044302561,-0.213709548,0.014424341,1.532969236,0.301836141,-0.117911899,-10.00338145
70.91,1.5,151.0,21.71431541,23.67243004,-79.78181613999999,40.45913049,293.5450253,0.030429712,0.040609352,-0.510819495,0.858188987,-0.393965126,-0.699609533,0.073427765,-0.13441208,-0.012532116,1.585036993,0.19726523,-0.205997992,-9.974248288
71.1,1.5,157.0,21.72057533,22.63870049,-79.78181796999999,40.45913002,293.5713829,0.016711731,0.035260335,-0.6233496070000001,0.780969083,-0.050251267,-0.73442824,0.142379181,-0.021970045,-0.055502269,1.131691575,0.184188609,-0.325266318,-10.08013318
71.21,1.600000024,159.0,21.77566528,21.31870651,-79.78181864999999,40.45912959,293.5710968,0.01186655,0.033101458,-0.660450935,0.750045478,0.079389502,-0.684165885,0.152403296,-0.10133221,-0.023087814,0.8006497029999999,0.322421026,0.066314195,-9.950011579
71.4,2.0,202.0,21.5928669,24.24495888,-79.78182,40.45912903,293.6037011,0.013228472,0.078844026,-0.701013088,0.708653092,0.377716985,-0.466165206,0.142856681,0.991681218,-1.011945724,0.431823343,0.879342077,0.024754078,-9.691131368
